loggingTime,loggingSample,identifierForVendor,motionTimestamp_sinceReboot,motionYaw,motionRoll,motionPitch,motionRotationRateX,motionRotationRateY,motionRotationRateZ,motionUserAccelerationX,motionUserAccelerationY,motionUserAccelerationZ,motionAttitudeReferenceFrame,motionQuaternionX,motionQuaternionY,motionQuaternionZ,motionQuaternionW,motionGravityX,motionGravityY,motionGravityZ,motionMagneticFieldX,motionMagneticFieldY,motionMagneticFieldZ,motionMagneticFieldCalibrationAccuracy,label
1563194090.545876,1,0,65432.04302,-1.383868930980465,0.146151653321053,0.8901988118271688,0.3309769034385681,0.3231282830238342,0.03449134156107903,-0.02855309844017029,-0.008896231651306152,-0.002511799335479736,2,0.3726868033409119,-0.2232265323400497,-0.550121545791626,0.7131905555725098,0.09163997322320938,-0.7771968841552734,-0.6225489377975464,12.49754333496094,5.162570953369141,-43.00592041015625,2,0
1563194090.573303,2,0,65432.077962,-1.384004761142253,0.1271165407264536,0.8946204341041699,-0.06568858772516251,-0.906232476234436,-0.02662190236151218,-0.02373027801513672,-0.08717679977416992,-0.034476637840271,2,0.368912398815155,-0.2313457727432251,-0.5529868602752686,0.7103437781333923,0.07933735847473145,-0.7799715995788574,-0.6207655668258667,12.39170074462891,4.856105804443359,-43.106689453125,2,0
1563194090.607514,3,0,65432.112935,-1.382727275067488,0.1063562457371141,0.8939400557088505,0.1301800012588501,-0.1970427632331848,0.1129244193434715,-0.146674245595932,-0.08392524719238281,-0.1293602585792542,2,0.3630739450454712,-0.2382732927799225,-0.5564402937889099,0.7083624601364136,0.06649023294448853,-0.7795456051826477,-0.6228063106536865,10.94258117675781,5.009735107421875,-43.5062255859375,2,0
1563194090.639311,4,0,65432.147878,-1.384669436519752,0.1103760137614271,0.9139127513160917,0.7747018933296204,0.01435072906315327,-0.09523309767246246,-0.1429775655269623,-0.1400254964828491,-0.07859164476394653,2,0.3707125186920166,-0.24311363697052,-0.5532363057136536,0.7052642107009888,0.06726455688476562,-0.7918991446495056,-0.606935977935791,10.76387023925781,3.913871765136719,-43.20501708984375,2,0
1563194090.673244,5,0,65432.18285100001,-1.40094318855909,0.1094292064404619,0.9404999658018238,0.7494328022003174,-0.576198935508728,-0.1828438192605972,-0.1094565093517303,-0.09790682792663574,-0.03922367095947266,2,0.3773249089717865,-0.2543550729751587,-0.5548079609870911,0.696503758430481,0.06436719745397568,-0.8078528642654419,-0.5858588218688965,10.40362548828125,2.544059753417969,-42.77801513671875,2,0
1563194090.705205,6,0,65432.217763,-1.413946908400091,0.1041412726109667,0.9624488823064269,0.5765413641929626,-0.2963986992835999,-0.1649038195610046,-0.08326077461242676,-0.07363367080688477,-0.04192233085632324,2,0.3814206421375275,-0.2651610374450684,-0.5566697120666504,0.6887138485908508,0.05941048264503479,-0.8205935955047607,-0.5684158205986023,9.865478515625,2.042980194091797,-42.83740234375,2,0
1563194090.739106,7,0,65432.252736,-1.430747544630509,0.1134567098495934,0.9773223818319011,0.4143083393573761,-0.1041696816682816,-0.2291911989450455,-0.09804284572601318,-0.05224108695983887,-0.05432021617889404,2,0.3866247832775116,-0.2696236968040466,-0.5581114888191223,0.682887852191925,0.06331397593021393,-0.8290029168128967,-0.5556486845016479,9.696998596191406,1.081134796142578,-42.6177978515625,2,0
1563194090.788723,8,0,65432.287679,-1.455700471583068,0.1263731652616746,0.9929381080136543,0.5540434718132019,-0.3543196022510529,-0.4642282724380493,-0.08248525857925415,-0.06247138977050781,-0.06180369853973389,2,0.391853004693985,-0.2747973501682281,-0.5613253116607666,0.6751677989959717,0.06884537637233734,-0.8376345038414001,-0.5418753027915955,9.558433532714844,0.102386474609375,-42.3927001953125,2,0
1563194090.805081,9,0,65432.322652,-1.504482830264866,0.1533702304497293,1.01572351694294,0.8343302607536316,-0.2880983948707581,-0.6825305223464966,-0.05412369966506958,0.005219042301177979,-0.06774866580963135,2,0.3997792601585388,-0.2824305593967438,-0.5680806040763855,0.6615843772888184,0.08051039278507233,-0.8498620986938477,-0.5208190679550171,9.152557373046875,-1.038623809814453,-41.8814697265625,2,0
1563194090.859928,10,0,65432.35756400001,-1.557392795222369,0.1959576817609877,1.043170024472831,0.9900935888290405,-0.08772663027048111,-0.5997607111930847,-0.02162203192710876,0.02831506729125977,-0.02980226278305054,2,0.412541538476944,-0.2878983616828918,-0.5713452100753784,0.6484509706497192,0.09803131967782974,-0.8640046119689941,-0.4938480257987976,9.40679931640625,-2.724403381347656,-41.5068359375,2,0
1563194090.870945,11,0,65432.39253700001,-1.608956672779562,0.2317735288348239,1.076966154899664,1.144798755645752,-0.3002113699913025,-0.4498932361602783,0.05174505710601807,0.02966296672821045,0.02505683898925781,2,0.4247758090496063,-0.2981640696525574,-0.5732428431510925,0.6340791583061218,0.1088801398873329,-0.8805238008499146,-0.4613274037837982,9.595352172851562,-3.527374267578125,-40.9464111328125,2,0
1563194090.914601,12,0,65432.42748000001,-1.66881599265759,0.2743655985156503,1.111265240065995,1.137878894805908,-0.2986350357532501,-0.5617673397064209,0.1047605872154236,0.04289388656616211,0.05633491277694702,2,0.4370147585868835,-0.3091095089912415,-0.5750830769538879,0.6186670660972595,0.1201678365468979,-0.8962605595588684,-0.4269388318061829,9.487411499023438,-5.454051971435547,-40.08477783203125,2,0
1563194090.936762,13,0,65432.46245300001,-1.723611217047784,0.3151220280035586,1.134889976399248,0.6947086453437805,-0.3103677034378052,-0.3626389801502228,0.1526765823364258,0.09128081798553467,0.09848529100418091,2,0.4460331797599792,-0.3167554140090942,-0.5772266983985901,0.606242299079895,0.1308634579181671,-0.9064877033233643,-0.40144082903862,9.493736267089844,-7.158302307128906,-39.14080810546875,2,0
1563194090.969401,14,0,65432.497365,-1.752943819097218,0.3213958168253724,1.149039462728137,0.2840272188186646,-0.7125628590583801,-0.1460779756307602,0.1440475285053253,0.1182964444160461,0.1435860395431519,2,0.4464655220508575,-0.3262932002544403,-0.5811583399772644,0.597039520740509,0.1293144524097443,-0.9123711585998535,-0.3884025812149048,8.642433166503906,-7.950027465820312,-38.81121826171875,2,0
1563194091.002734,15,0,65432.532338,-1.765466120172219,0.304031257265951,1.142119831053268,-0.3299040198326111,-0.9157895445823669,-0.256935328245163,0.170163094997406,0.1127879619598389,0.1986753940582275,2,0.4377131760120392,-0.3318211436271667,-0.5904329419136047,0.5913466215133667,0.1244379356503487,-0.9095166921615601,-0.3966038227081299,7.570945739746094,-7.912532806396484,-39.06207275390625,2,0
1563194091.035035,16,0,65432.532338,-1.765466120172219,0.304031257265951,1.142119831053268,-0.3299040198326111,-0.9157895445823669,-0.256935328245163,0.170163094997406,0.1127879619598389,0.1986753940582275,2,0.4377131760120392,-0.3318211436271667,-0.5904329419136047,0.5913466215133667,0.1244379356503487,-0.9095166921615601,-0.3966038227081299,7.570945739746094,-7.912532806396484,-39.06207275390625,2,0
1563194091.068632,17,0,65432.567281,-1.764521921996501,0.2705431096924293,1.113485555508271,-1.040326118469238,-0.8329620957374573,-0.130372628569603,0.1251897215843201,0.1331864595413208,0.1425036191940308,2,0.4211057126522064,-0.3315596878528595,-0.6042941808700562,0.589547872543335,0.1180028468370438,-0.8972431421279907,-0.4254763126373291,6.939620971679688,-7.503700256347656,-39.36553955078125,2,0
1563194091.100822,18,0,65432.602254,-1.725643210848406,0.2208290110516801,1.076301369197591,-1.156291365623474,-0.3027398884296417,0.4494960308074951,0.08575418591499329,0.1462615728378296,0.06155037879943848,2,0.4031568765640259,-0.3254739940166473,-0.6116061210632324,0.5978872776031494,0.1039529070258141,-0.8802084922790527,-0.4630624353885651,6.024017333984375,-5.649059295654297,-40.5054931640625,2,0
1563194091.153266,19,0,65432.637169125,-1.664801009853498,0.1654640731047964,1.04655790722057,-0.8276125192642212,0.09861738979816437,0.7040857076644897,-0.001661568880081177,0.08241480588912964,0.01248621940612793,2,0.3881508708000183,-0.3201252818107605,-0.6105992794036865,0.6115777492523193,0.08244628459215164,-0.8657054305076599,-0.4937174022197723,4.741470336914062,-3.659011840820312,-41.41180419921875,2,0
1563194091.167141,20,0,65432.672143125,-1.627954543830629,0.1457420464219361,1.036141073436215,-0.1441051661968231,0.3308171331882477,0.353557288646698,-0.08292314410209656,0.05309200286865234,0.001073360443115234,2,0.385097473859787,-0.3156401515007019,-0.6051895022392273,0.6211416125297546,0.07399943470954895,-0.8604443669319153,-0.5041424632072449,4.622268676757812,-2.900482177734375,-41.91693115234375,2,0
1563194091.21334,21,0,65432.707085125,-1.613962019884461,0.1362752599376524,1.042646327046643,0.2711443603038788,0.01133425533771515,0.1382268071174622,-0.1051424741744995,0.02570223808288574,0.0320848822593689,2,0.3863168358802795,-0.3180050849914551,-0.6013587117195129,0.6228961944580078,0.06846167147159576,-0.8637408018112183,-0.4992641508579254,4.726997375488281,-2.886013031005859,-41.645263671875,2,0
1563194091.232488,22,0,65432.742058125,-1.608757643562068,0.1332964218658662,1.053570260773834,0.2551619410514832,0.0696905106306076,0.1460386514663696,-0.08869528770446777,0.02276194095611572,0.029011070728302,2,0.3893907368183136,-0.3214538097381592,-0.5981287360191345,0.6223217248916626,0.06571619957685471,-0.8691941499710083,-0.4900846183300018,4.650985717773438,-3.434700012207031,-41.78302001953125,2,0
1563194091.27355,23,0,65432.777001125,-1.592413868248311,0.1225185572088516,1.057396130726877,0.04523301869630814,0.03875536471605301,0.2747602462768555,-0.09739309549331665,0.006870746612548828,0.03725147247314453,2,0.3899147510528564,-0.3228565156459808,-0.5943691730499268,0.6248643398284912,0.06002356857061386,-0.8710795640945435,-0.4874603152275085,4.585838317871094,-3.815517425537109,-41.8765869140625,2,0
1563194091.29844,24,0,65432.811974125,-1.573674935077337,0.1007420043160166,1.059458671893022,0.006661748047918081,-0.222235843539238,0.2299852967262268,-0.1582415699958801,-0.04967474937438965,0.05260002613067627,2,0.3871009945869446,-0.3266821801662445,-0.5923319458961487,0.6265575885772705,0.04921417310833931,-0.8720906972885132,-0.4868631362915039,4.021812438964844,-3.774284362792969,-41.8350830078125,2,0
1563194091.332273,25,0,65432.84688612501,-1.570347031128274,0.08445730202505776,1.058808047983379,-0.01996129006147385,-0.5395835638046265,-0.03948349505662918,-0.1686824858188629,-0.06494677066802979,0.05438995361328125,2,0.3826232850551605,-0.3309332728385925,-0.5945497155189514,0.6249744892120361,0.04132742434740067,-0.8717721700668335,-0.4881651699542999,3.571044921875,-3.722927093505859,-41.67388916015625,2,0
1563194091.364322,26,0,65432.881859125,-1.583691629421428,0.07388226962488804,1.05844588367641,-0.06749982386827469,-0.6306049227714539,-0.2550184726715088,-0.08624148368835449,-0.02033960819244385,0.08009302616119385,2,0.377128392457962,-0.3366441130638123,-0.6007785797119141,0.6192818284034729,0.03618615493178368,-0.8715946674346924,-0.4888898432254791,3.174850463867188,-4.083099365234375,-41.6783447265625,2,0
1563194091.398227,27,0,65432.916802125,-1.605568419982313,0.07064441120682224,1.050437914134654,-0.1843956112861633,-0.7082417607307434,-0.3938625156879425,-0.06127017736434937,-0.001037716865539551,0.03754603862762451,2,0.3700883388519287,-0.3392036855220795,-0.6096532344818115,0.6134316325187683,0.03509456291794777,-0.8676410317420959,-0.4959509670734406,2.195411682128906,-3.560810089111328,-41.92303466796875,2,0
1563194091.431159,28,0,65432.951775125,-1.64398572525568,0.08014304739365996,1.046742062300159,-0.07855839282274246,-0.6011472940444946,-0.60611492395401,0.06154245138168335,0.05339372158050537,-0.01709717512130737,2,0.3653905689716339,-0.3421923220157623,-0.6203105449676514,0.6038286089897156,0.04006021842360497,-0.8657975792884827,-0.4987882971763611,1.437767028808594,-3.164218902587891,-41.90728759765625,2,0
1563194091.464158,29,0,65432.98668712501,-1.664672688554915,0.08145535993666252,1.041055694239604,-0.2464240789413452,-0.5847621560096741,-0.004038931801915169,0.3139062523841858,-0.1894856691360474,-0.1137082576751709,2,0.3606276512145996,-0.3437013924121857,-0.6274003386497498,0.5984863042831421,0.04111466929316521,-0.8629381656646729,-0.5036340951919556,0.8011627197265625,-3.151958465576172,-42.14605712890625,2,0
1563194091.51285,30,0,65433.02166012501,-1.655169144323979,0.06475618117614064,1.040040703528386,0.2094769179821014,0.1977452337741852,0.1260737478733063,0.0976843535900116,0.1511417031288147,-0.1702322363853455,2,0.3567376732826233,-0.3466642498970032,-0.6277475953102112,0.5987446308135986,0.03275571763515472,-0.8624248504638672,-0.5051242709159851,0.1283187866210938,-3.107738494873047,-42.05621337890625,2,0
1563194091.529979,31,0,65433.05660312501,-1.652646725280893,0.09192854737584233,1.051454593633587,0.3000338077545166,1.002804636955261,-0.02615187130868435,0.1073433458805084,0.1178751587867737,-0.09479105472564697,2,0.3689102232456207,-0.341758131980896,-0.6198339462280273,0.602422297000885,0.04556072130799294,-0.8681460618972778,-0.4942132532596588,0.7540969848632812,-3.090179443359375,-42.07135009765625,2,0
1563194091.573583,32,0,65433.09157612501,-1.665949258453953,0.1313669321910366,1.053793019249538,-0.03209296986460686,0.7099546790122986,-0.2578546702861786,0.2570631504058838,0.127166211605072,-0.05195724964141846,2,0.3795083165168762,-0.3331128358840942,-0.6159983277320862,0.6046117544174194,0.06474510580301285,-0.8693042993545532,-0.4900185465812683,2.593231201171875,-3.784725189208984,-41.912109375,2,0
1563194091.595837,33,0,65433.126488125,-1.659771698692012,0.1483565142624141,1.048577707969318,-0.2203252166509628,0.5982406139373779,0.3481893539428711,0.2617219686508179,0.1223651170730591,-0.07895565032958984,2,0.3842917382717133,-0.3250496685504913,-0.6119487285614014,0.6100667119026184,0.07372971624135971,-0.8667146563529968,-0.4933251440525055,3.637275695800781,-3.496376037597656,-42.09088134765625,2,0
1563194091.62842,34,0,65433.126488125,-1.659771698692012,0.1483565142624141,1.048577707969318,-0.2203252166509628,0.5982406139373779,0.3481893539428711,0.2617219686508179,0.1223651170730591,-0.07895565032958984,2,0.3842917382717133,-0.3250496685504913,-0.6119487285614014,0.6100667119026184,0.07372971624135971,-0.8667146563529968,-0.4933251440525055,3.637275695800781,-3.496376037597656,-42.09088134765625,2,0
1563194091.661805,35,0,65433.161461125,-1.614873101523866,0.1395042359313935,1.044117253646836,-0.2077987492084503,1.072711110115051,0.6707445979118347,0.09647145867347717,0.0404965877532959,-0.09278005361557007,2,0.3875640630722046,-0.317652553319931,-0.6007232666015625,0.6229145526885986,0.06989670544862747,-0.8644811511039734,-0.497781902551651,4.565620422363281,-2.985172271728516,-42.352783203125,2,0
1563194091.693921,36,0,65433.196404125,-1.582322858087128,0.1585449558288438,1.043627540528173,0.0008631334640085697,1.340794444084167,0.2900762259960175,0.03062188625335693,0.001249194145202637,-0.008074522018432617,2,0.3981444239616394,-0.3051092326641083,-0.5868393182754517,0.6356169581413269,0.07942839711904526,-0.8642348647117615,-0.4967787563800812,5.611305236816406,-2.987545013427734,-42.16839599609375,2,0
1563194091.727715,37,0,65433.231377125,-1.589981825719849,0.1938655484448721,1.039040382660715,-0.1592262238264084,0.5597160458564758,-0.3101291656494141,0.04792308807373047,0.06482052803039551,0.01587355136871338,2,0.4060093462467194,-0.2939079999923706,-0.5831124186515808,0.6393390297889709,0.09768447279930115,-0.861918032169342,-0.4975489974021912,7.413917541503906,-2.757186889648438,-42.00457763671875,2,0
1563194091.76018,38,0,65433.26628912501,-1.590677112878158,0.2122588803934816,1.042452806422523,0.2552370727062225,0.5472709536552429,0.2784026265144348,0.07354477047920227,0.07711982727050781,-0.04492980241775513,2,0.4122209548950195,-0.2892729341983795,-0.5788648724555969,0.6413349509239197,0.1061987727880478,-0.8636432886123657,-0.4927901029586792,8.707298278808594,-2.820384979248047,-42.07177734375,2,0
1563194091.808813,39,0,65433.301262125,-1.562481779966795,0.2161995526823989,1.057855217840991,0.3301287889480591,0.9626165628433228,0.5265113711357117,0.04805678129196167,0.04963874816894531,-0.04259121417999268,2,0.4217903614044189,-0.2871135473251343,-0.5657320618629456,0.6477699875831604,0.1052735820412636,-0.8713049292564392,-0.4793173968791962,9.541694641113281,-3.207439422607422,-41.48980712890625,2,0
1563194091.825752,40,0,65433.336205125,-1.525533123269116,0.2155168254979153,1.070157210804005,0.1567328721284866,0.8018678426742554,0.6016057133674622,0.02222585678100586,0.05313646793365479,-0.009307324886322021,2,0.4304113388061523,-0.2833811342716217,-0.5512593984603882,0.6561664342880249,0.102646216750145,-0.8772760033607483,-0.4688824117183685,10.46134185791016,-3.692008972167969,-41.07305908203125,2,0
1563194091.874305,41,0,65433.371178125,-1.482357557647237,0.2038552131149299,1.073306648885136,-0.07184323668479919,0.7906321287155151,0.5786938667297363,0.02073639631271362,0.04329133033752441,-0.02793997526168823,2,0.4342281818389893,-0.2788837850093842,-0.5388607978820801,0.6658068895339966,0.09661159664392471,-0.8787832856178284,-0.467339426279068,11.01157379150391,-3.860027313232422,-40.9276123046875,2,0
1563194091.891629,42,0,65433.406121125,-1.440430825413653,0.1960977642948117,1.079664707904385,0.1462707370519638,0.8035114407539368,0.6374603509902954,0.0195336639881134,0.04597115516662598,-0.004998385906219482,2,0.439876526594162,-0.2742555737495422,-0.5252179503440857,0.6748619079589844,0.09189281612634659,-0.8817996978759766,-0.4625850319862366,12.25875854492188,-4.140033721923828,-40.4295654296875,2,0
1563194091.928555,43,0,65433.441094125,-1.386944990151729,0.1719281393068123,1.089466337782194,0.1098766103386879,0.5830751657485962,0.8053582310676575,-0.04694318771362305,0.01684361696243286,0.02414971590042114,2,0.4439708888530731,-0.2735386788845062,-0.5104619860649109,0.6837360262870789,0.0792040228843689,-0.8863799571990967,-0.4561328887939453,12.76138305664062,-4.587886810302734,-40.2105712890625,2,0
1563194091.957385,44,0,65433.47600612501,-1.324115022976273,0.1310562131962374,1.092748389759074,-0.139969065785408,0.3237961530685425,0.8547599911689758,-0.1031196415424347,-0.03791642189025879,0.03002357482910156,2,0.4433318972587585,-0.2746015191078186,-0.4972806870937347,0.6933705806732178,0.06011955067515373,-0.8878946304321289,-0.456101655960083,12.78350067138672,-4.879150390625,-40.054931640625,2,0
1563194091.991422,45,0,65433.51097912501,-1.260286303639655,0.08328819251082549,1.087173699438153,-0.24967922270298,0.2306442707777023,0.7676416039466858,-0.1983420252799988,-0.09615808725357056,0.007390379905700684,2,0.4385093450546265,-0.2757186889648438,-0.4864895939826965,0.7035741806030273,0.03868336603045464,-0.8853162527084351,-0.4633775055408478,12.27044677734375,-4.712177276611328,-40.08221435546875,2,0
1563194092.023401,46,0,65433.54592212501,-1.214302704045415,0.0499100292735901,1.079651141773018,-0.2617430686950684,0.2001252472400665,0.4895815253257751,-0.2176157534122467,-0.1104221343994141,-0.02009648084640503,2,0.4342052340507507,-0.275574654340744,-0.4787144660949707,0.71158766746521,0.02352960221469402,-0.8817933201789856,-0.4710488617420197,12.24763488769531,-4.472488403320312,-40.1943359375,2,0
1563194092.057258,47,0,65433.58089512501,-1.189752379543435,0.03323249750796081,1.074666192111175,-0.1079063192009926,0.1057906299829483,0.2917846441268921,-0.1607865989208221,-0.08199119567871094,-0.01825231313705444,2,0.4318613409996033,-0.2749805748462677,-0.4743218719959259,0.7161704897880554,0.01581661403179169,-0.8794313073158264,-0.4757629334926605,12.18482208251953,-4.150844573974609,-40.2474365234375,2,0
1563194092.089369,48,0,65433.615824,-1.171893145552494,0.02054479653696133,1.07346133080081,-0.01913917250931263,0.07285264134407043,0.2146246880292892,-0.1157251000404358,-0.0528414249420166,-0.009538829326629639,2,0.4308929741382599,-0.2753888368606567,-0.4708284437656403,0.7188969850540161,0.009800927713513374,-0.8788571357727051,-0.4769844710826874,12.08895874023438,-4.287960052490234,-40.07196044921875,2,0
1563194092.123192,49,0,65433.650797,-1.163556307179575,0.01509450877947277,1.06998270761312,-0.1442442387342453,0.05237127840518951,0.0688212513923645,-0.06326046586036682,-0.02957308292388916,-0.001144528388977051,2,0.4295149147510529,-0.274726390838623,-0.4695007503032684,0.7208407521247864,0.00724719325080514,-0.8771921992301941,-0.4800846874713898,12.16619873046875,-4.141532897949219,-40.343017578125,2,0
1563194092.174555,50,0,65433.68574,-1.161694463187877,0.01442904917616472,1.065516424894673,-0.1339587420225143,0.01372638717293739,-0.002710590371862054,-0.02240908145904541,-0.02023589611053467,0.007471561431884766,2,0.4280118942260742,-0.2735047042369843,-0.4696076214313507,0.7221285700798035,0.006984173320233822,-0.8750390410423279,-0.4840019941329956,12.25018310546875,-3.718055725097656,-40.28564453125,2,0
1563194092.18948,51,0,65433.68574,-1.161694463187877,0.01442904917616472,1.065516424894673,-0.1339587420225143,0.01372638717293739,-0.002710590371862054,-0.02240908145904541,-0.02023589611053467,0.007471561431884766,2,0.4280118942260742,-0.2735047042369843,-0.4696076214313507,0.7221285700798035,0.006984173320233822,-0.8750390410423279,-0.4840019941329956,12.25018310546875,-3.718055725097656,-40.28564453125,2,0
1563194092.22838,52,0,65433.720713,-1.158810903193699,0.01158040538475476,1.06199288167018,-0.05250413343310356,-0.004326477646827698,0.06932468712329865,0.007833808660507202,0.00805211067199707,0.01038563251495361,2,0.4264702498912811,-0.2730809152126312,-0.4696722626686096,0.7231582403182983,0.005641066003590822,-0.8733280301094055,-0.4870998859405518,12.31407928466797,-3.695865631103516,-40.43524169921875,2,0
1563194092.254967,53,0,65433.75562500001,-1.151640082760922,0.004332046070784936,1.06032710903176,-0.08644931018352509,0.001202542334794998,0.09578021615743637,0.00160709023475647,-0.00179368257522583,-0.008853793144226074,2,0.425148993730545,-0.273783266544342,-0.4688532948493958,0.7242013812065125,0.002116573508828878,-0.8725153207778931,-0.4885821044445038,12.06204986572266,-3.696426391601562,-40.26837158203125,2,0
1563194092.289272,54,0,65433.79059800001,-1.14819074358239,0.001168862881711254,1.056392132472006,-0.09845798462629318,-0.04872310161590576,0.03855790197849274,0.01321896910667419,-0.006255865097045898,0.00465017557144165,2,0.4234546720981598,-0.2732731103897095,-0.4688163995742798,0.7254096269607544,0.0005750993732362986,-0.8705860376358032,-0.4920158982276917,12.04840850830078,-3.466960906982422,-40.368408203125,2,0
1563194092.320907,55,0,65433.82554100001,-1.143992735586224,-0.003750311993724262,1.053181423185365,-0.09166424721479416,-0.005069088190793991,0.06850480288267136,0.005639433860778809,-0.001660287380218506,-0.003760576248168945,2,0.4217094779014587,-0.2734197974205017,-0.4687694013118744,0.7264007329940796,-0.001855683512985706,-0.8690018057823181,-0.4948054552078247,11.95121002197266,-3.288257598876953,-40.533935546875,2,0
1563194092.353885,56,0,65433.86051400001,-1.139825294691871,-0.007354162872320749,1.051205372545616,-0.03781044110655785,-0.006981434300541878,0.06665852665901184,0.00465768575668335,-0.006835699081420898,0.0009359121322631836,2,0.4207153022289276,-0.2733912765979767,-0.4682799875736237,0.7273030281066895,-0.003651493694633245,-0.8680223822593689,-0.496511697769165,12.10702514648438,-3.385215759277344,-40.503173828125,2,0
1563194092.386803,57,0,65433.895426,-1.132756019101705,-0.01401399385302292,1.049352071440385,-0.05393630638718605,-0.01057037990540266,0.1183908730745316,-0.01095014810562134,-0.01202964782714844,-0.0009863972663879395,2,0.4194476008415222,-0.2739008963108063,-0.467352420091629,0.7284392118453979,-0.006980603560805321,-0.8671006560325623,-0.4980840086936951,11.97451782226562,-3.245819091796875,-40.63665771484375,2,0
1563194092.418828,58,0,65433.930399,-1.125439722972637,-0.02177295503666067,1.047833420233845,-0.04474625363945961,-0.03476781398057938,0.09736243635416031,-0.03960508108139038,-0.01504600048065186,-0.001448512077331543,2,0.4180827140808105,-0.2748480141162872,-0.4665088951587677,0.7294071912765503,-0.01087362598627806,-0.8663431406021118,-0.4993308186531067,11.65472412109375,-3.215179443359375,-40.478759765625,2,0
1563194092.476174,59,0,65433.965342,-1.121523579610451,-0.02584385153093136,1.045381364380773,-0.08153481781482697,-0.01866672933101654,0.03865049034357071,-0.05039650201797485,-0.01123720407485962,0.009505212306976318,2,0.4167691171169281,-0.2749567627906799,-0.4662450850009918,0.7302861213684082,-0.01296111103147268,-0.8651158809661865,-0.5014045834541321,11.75953674316406,-3.116481781005859,-40.67474365234375,2,0
1563194092.484723,60,0,65434.000315,-1.121166430451004,-0.02764414507759892,1.040763782214195,-0.155510738492012,-0.06757746636867523,-0.0032761599868536,-0.05638760328292847,-0.00515437126159668,-0.002355456352233887,2,0.4146947264671326,-0.2744888961315155,-0.467077761888504,0.7311104536056519,-0.01397403329610825,-0.8627906441688538,-0.5053682327270508,11.72030639648438,-2.761940002441406,-40.5849609375,2,0
1563194092.528018,61,0,65434.03522700001,-1.122890850334333,-0.02885552890023361,1.035497180187592,-0.1369681656360626,-0.08865521103143692,-0.02376610226929188,-0.05849811434745789,0.007003068923950195,-0.005819022655487061,2,0.4122292697429657,-0.27408766746521,-0.4686264097690582,0.7316640019416809,-0.01471711415797472,-0.8601160645484924,-0.5098859667778015,11.63512420654297,-2.796783447265625,-40.79864501953125,2,0
1563194092.550572,62,0,65434.0702,-1.123365897426462,-0.03194569490946775,1.030253431588862,-0.175108015537262,-0.09380429983139038,0.000187341240234673,-0.0672619640827179,0.02525210380554199,-0.005746304988861084,2,0.4094989001750946,-0.2741188406944275,-0.4700950682163239,0.7322432398796082,-0.01643650978803635,-0.8574294447898865,-0.5143390297889709,11.40607452392578,-2.25946044921875,-40.913818359375,2,0
1563194092.587893,63,0,65434.105143,-1.127953136150837,-0.03217419146376659,1.022093840263618,-0.2690817713737488,-0.1265777051448822,-0.1025739312171936,-0.06690472364425659,0.03646773099899292,0.005480766296386719,2,0.4057943820953369,-0.2732683718204498,-0.4728420972824097,0.732854425907135,-0.01677853800356388,-0.8532019853591919,-0.5213106274604797,11.43950653076172,-2.210834503173828,-41.01373291015625,2,0
1563194092.616514,64,0,65434.140116,-1.137653938413315,-0.02939854129227258,1.010535064483035,-0.3444158434867859,-0.1952995359897614,-0.1453244686126709,-0.007836192846298218,0.06131309270858765,0.00204002857208252,2,0.4008490443229675,-0.271534651517868,-0.4772813618183136,0.733342707157135,-0.01562035735696554,-0.8471162915229797,-0.5311779379844666,11.22293853759766,-1.854145050048828,-41.4091796875,2,0
1563194092.650403,65,0,65434.175059,-1.149422987588258,-0.02605538702829223,1.001709428703824,-0.2201576381921768,-0.1603249609470367,-0.1615582704544067,-0.1055935919284821,0.2406123876571655,0.01703232526779175,2,0.3967889249324799,-0.2705891728401184,-0.4820345342159271,0.732791006565094,-0.0140386950224638,-0.8423933386802673,-0.5386800765991211,11.07498168945312,-0.9849586486816406,-41.57867431640625,2,0
1563194092.682374,66,0,65434.210032,-1.159556734131566,-0.009886401410674,0.9972318608004425,-0.1083588153123856,0.4737797677516937,-0.185314878821373,-0.08983626961708069,0.2029286623001099,0.1445200443267822,2,0.3976800143718719,-0.2656107842922211,-0.4831083118915558,0.7334220409393311,-0.00536456611007452,-0.8399721384048462,-0.5426030158996582,11.24533081054688,-0.9743576049804688,-41.657958984375,2,0
1563194092.716431,67,0,65434.24494400001,-1.183200618089463,0.01837108323886204,0.9866394003984912,-0.4729178547859192,-0.07750920951366425,-0.472617894411087,0.02798792719841003,0.112388014793396,0.1487099528312683,2,0.3975670337677002,-0.2573690414428711,-0.4875630140304565,0.7334738969802856,0.01013101451098919,-0.8341773152351379,-0.551403284072876,12.24188232421875,-0.4015159606933594,-41.52978515625,2,0
1563194092.74838,68,0,65434.24494400001,-1.183200618089463,0.01837108323886204,0.9866394003984912,-0.4729178547859192,-0.07750920951366425,-0.472617894411087,0.02798792719841003,0.112388014793396,0.1487099528312683,2,0.3975670337677002,-0.2573690414428711,-0.4875630140304565,0.7334738969802856,0.01013101451098919,-0.8341773152351379,-0.551403284072876,12.24188232421875,-0.4015159606933594,-41.52978515625,2,0
1563194092.782247,69,0,65434.27991700001,-1.213081654890643,0.02213627425953432,0.9570649660245675,-0.9798682928085327,-0.7528733611106873,-0.4554775357246399,0.07137706875801086,0.07212924957275391,0.0003979206085205078,2,0.3839164674282074,-0.2543968260288239,-0.5017799139022827,0.7321935296058655,0.01274772360920906,-0.8175047636032104,-0.5757808089256287,11.73766326904297,0.726318359375,-41.9464111328125,2,0
1563194092.829752,70,0,65434.31486000001,-1.228044581118507,0.01089993438879687,0.9217293659049951,-0.9764111042022705,-0.6241695880889893,-0.1632965952157974,0.08095300197601318,0.01129961013793945,-0.09592127799987793,2,0.3662954568862915,-0.2522378265857697,-0.51405930519104,0.7334485054016113,0.006588262505829334,-0.7966480851173401,-0.6044074296951294,10.95475769042969,2.794731140136719,-42.99176025390625,2,0
1563194092.84818,71,0,65434.34983300001,-1.231839252888966,-0.004580231599239403,0.8954474491933286,-0.6014420390129089,-0.4606907665729523,-0.0549132227897644,0.04625868797302246,-0.03644144535064697,-0.1326809525489807,2,0.3521698713302612,-0.2517832815647125,-0.5215752720832825,0.7352148294448853,-0.002863412024453282,-0.780488908290863,-0.6251631379127502,10.57816314697266,3.736328125,-43.3094482421875,2,0
1563194092.889949,72,0,65434.384745,-1.236089389155043,-0.02007784080061736,0.8805421580012172,-0.3766699433326721,-0.6191893815994263,-0.07314164191484451,0.01618295907974243,-0.04756861925125122,-0.112773060798645,2,0.3420664072036743,-0.2543385922908783,-0.5276452898979187,0.734774112701416,-0.01278336998075247,-0.771084189414978,-0.636604905128479,9.598968505859375,4.796844482421875,-43.63665771484375,2,0
1563194092.914092,73,0,65434.419718,-1.240874484512875,-0.03943060952806163,0.869191797375142,-0.2866984903812408,-0.6418895721435547,-0.07126050442457199,0.001237034797668457,-0.04082047939300537,-0.05809676647186279,2,0.3321088850498199,-0.2592922747135162,-0.5339959859848022,0.7330208420753479,-0.02544366009533405,-0.7638075351715088,-0.6449424028396606,8.771903991699219,5.473064422607422,-43.926025390625,2,0
1563194092.955198,74,0,65434.454661,-1.24504256019159,-0.05612854779231107,0.8595278708157887,-0.3079794347286224,-0.547050416469574,-0.0524224266409874,0.02602276206016541,-0.0421481728553772,-0.02689015865325928,2,0.3234889209270477,-0.2635741829872131,-0.5393516421318054,0.7314255237579346,-0.03662120923399925,-0.7575344443321228,-0.6517671346664429,7.370147705078125,6.122905731201172,-44.30645751953125,2,0
1563194092.979854,75,0,65434.48963400001,-1.24784169385955,-0.07504385367801432,0.8490147407793941,-0.2668369114398956,-0.6507872343063354,-0.02577071450650692,0.03411334753036499,-0.02951997518539429,-0.006566166877746582,2,0.3140667676925659,-0.2681983411312103,-0.5445321798324585,0.7300112247467041,-0.04953667521476746,-0.7506297826766968,-0.6588634252548218,6.16943359375,6.294918060302734,-44.47882080078125,2,0
1563194093.011873,76,0,65434.524546,-1.250619187919968,-0.1012764380365985,0.8425552492101489,-0.1604544520378113,-0.8789398074150085,-0.03532949090003967,0.06866243481636047,-0.007847249507904053,-0.01364362239837646,2,0.3040875494480133,-0.2765085995197296,-0.5502669215202332,0.7268287539482117,-0.06729016453027725,-0.7463462352752686,-0.6621475219726562,5.610687255859375,6.726665496826172,-44.539306640625,2,0
1563194093.04589,77,0,65434.559519,-1.252699560335788,-0.1269369759634876,0.8364012852945732,-0.2056577354669571,-0.7043352127075195,-0.005136372521519661,0.09244593977928162,-0.02265262603759766,-0.02769255638122559,2,0.2943866550922394,-0.2845403850078583,-0.5554642081260681,0.7237629294395447,-0.08483706414699554,-0.742236316204071,-0.6647465229034424,3.941932678222656,7.100284576416016,-44.6907958984375,2,0
1563194093.077776,78,0,65434.594462,-1.251842188901649,-0.1522694862569819,0.8316619466646269,-0.05401666834950447,-0.7248563766479492,0.05012137815356255,0.07934358716011047,-0.02592778205871582,-0.02330482006072998,2,0.2856599092483521,-0.2923550307750702,-0.5592666864395142,0.7212126851081848,-0.1021801680326462,-0.7390519380569458,-0.6658539175987244,2.528511047363281,7.490058898925781,-44.74542236328125,2,0
1563194093.124229,79,0,65434.62942125001,-1.254014215069071,-0.1758833860377245,0.8337388250524738,0.09593428671360016,-0.739177405834198,-0.1202462613582611,0.05602243542671204,-0.02480530738830566,-0.01095056533813477,2,0.2794977724552155,-0.3016778528690338,-0.5632016062736511,0.7167115211486816,-0.1176047995686531,-0.7404494285583496,-0.6617429256439209,1.396377563476562,7.203983306884766,-44.57269287109375,2,0
1563194093.144283,80,0,65434.66436425001,-1.262215310882365,-0.1948323281817364,0.8378663042469684,0.0612814649939537,-0.5996108055114746,-0.1718463599681854,0.0339781641960144,-0.01289808750152588,-0.01221108436584473,2,0.2744458019733429,-0.3106181025505066,-0.5684029459953308,0.7107136845588684,-0.1295294612646103,-0.7432172894477844,-0.6563917994499207,-0.1448440551757812,7.138187408447266,-44.50628662109375,2,0
1563194093.188914,81,0,65434.69933725001,-1.268708170968792,-0.1985542359771864,0.8394117777681056,0.003154797945171595,-0.1013407930731773,-0.1014346331357956,0.02918922901153564,0.003134012222290039,0.009582996368408203,2,0.2729575932025909,-0.3132171034812927,-0.5710858702659607,0.707990288734436,-0.1317448914051056,-0.7442503571510315,-0.6547784209251404,-0.4662246704101562,7.088569641113281,-44.50640869140625,2,0
1563194093.209696,82,0,65434.73424925,-1.27388825911206,-0.1967903609204733,0.8400357422355776,0.007905967533588409,-0.07035791128873825,-0.1208650767803192,0.003682047128677368,-0.00922095775604248,0.02661645412445068,2,0.2728859484195709,-0.3134584128856659,-0.572624683380127,0.706666886806488,-0.1304989010095596,-0.7446669936180115,-0.6545541882514954,-0.835052490234375,7.276973724365234,-44.53363037109375,2,0
1563194093.257761,83,0,65434.76922225,-1.279830018709462,-0.1968666087004526,0.8423742393275809,0.04623149707913399,-0.1005587428808212,-0.08500736206769943,-0.009334743022918701,-0.01130938529968262,0.06432604789733887,2,0.272811621427536,-0.3148912489414215,-0.5745323896408081,0.7045068144798279,-0.1302078366279602,-0.7462257146835327,-0.6528346538543701,-0.827301025390625,7.070644378662109,-44.319091796875,2,0
1563194093.275843,84,0,65434.80416525,-1.277498196335674,-0.2002429201627126,0.8411549542503489,-0.0789509043097496,-0.02467937208712101,0.1234695687890053,-0.02115693688392639,-0.02487790584564209,0.0870821475982666,2,0.2717503309249878,-0.3154528737068176,-0.5742740631103516,0.7048762440681458,-0.1325921416282654,-0.7454135417938232,-0.6532824635505676,-0.9464874267578125,7.172256469726562,-44.20361328125,2,0
1563194093.314148,85,0,65434.83913825,-1.27449477827988,-0.2054310449281148,0.8329443782161414,-0.2811728715896606,-0.1068986430764198,0.06513155996799469,-0.05029445886611938,-0.07703638076782227,0.07102203369140625,2,0.2676351964473724,-0.3147915899753571,-0.5745974779129028,0.7064809799194336,-0.1372235268354416,-0.7399152517318726,-0.6585553288459778,-1.084037780761719,7.585788726806641,-44.17510986328125,2,0
1563194093.342021,86,0,65434.83913825,-1.27449477827988,-0.2054310449281148,0.8329443782161414,-0.2811728715896606,-0.1068986430764198,0.06513155996799469,-0.05029445886611938,-0.07703638076782227,0.07102203369140625,2,0.2676351964473724,-0.3147915899753571,-0.5745974779129028,0.7064809799194336,-0.1372235268354416,-0.7399152517318726,-0.6585553288459778,-1.084037780761719,7.585788726806641,-44.17510986328125,2,0
1563194093.375787,87,0,65434.87405025,-1.280584572108391,-0.2057380132426934,0.8195539805721205,-0.480200469493866,-0.1165683269500732,-0.07335828989744186,-0.0624854564666748,-0.07303106784820557,0.02870661020278931,2,0.2615306973457336,-0.3122905194759369,-0.5778793096542358,0.7071999907493591,-0.139437347650528,-0.7308414578437805,-0.6681526303291321,-1.426826477050781,7.890087127685547,-44.39215087890625,2,0
1563194093.407392,88,0,65434.90902325,-1.288074082298694,-0.1989297206402304,0.8017464600182169,-0.5336200594902039,0.09725285321474075,-0.007805186323821545,-0.05119633674621582,-0.05867123603820801,0.001470983028411865,2,0.2556138932704926,-0.3062560260295868,-0.581081748008728,0.7093749642372131,-0.1374355852603912,-0.7185717821121216,-0.6817375421524048,-1.484565734863281,9.039318084716797,-44.30389404296875,2,0
1563194093.441865,89,0,65434.94396625,-1.292833461184733,-0.192909913029169,0.7860586845703205,-0.4148164689540863,0.09311899542808533,-0.01502204220741987,-0.04508566856384277,-0.06426501274108887,-0.008618831634521484,2,0.2507137358188629,-0.3006272614002228,-0.5832603573799133,0.7117395401000977,-0.1354738473892212,-0.7075737118721008,-0.6935317516326904,-1.247932434082031,9.996833801269531,-44.55126953125,2,0
1563194093.48836,90,0,65434.97893925,-1.298108295998807,-0.1884548658369145,0.773305682495073,-0.3840156495571136,-0.04718555510044098,-0.05404005944728851,-0.0510285496711731,-0.06551957130432129,-0.03455644845962524,2,0.246407076716423,-0.2963371574878693,-0.5855934619903564,0.7131256461143494,-0.1340625137090683,-0.698504626750946,-0.7029356956481934,-1.326728820800781,10.86971282958984,-44.738525390625,2,0
1563194093.507257,91,0,65435.01385125001,-1.308853735947951,-0.1845417312902364,0.7612023856908394,-0.3654536306858063,-0.1059102863073349,-0.2088208943605423,-0.04804211854934692,-0.04421544075012207,-0.01616746187210083,2,0.2414036989212036,-0.2930313050746918,-0.589898943901062,0.7126542925834656,-0.1328524649143219,-0.6897924542427063,-0.7117137908935547,-1.124847412109375,11.24097442626953,-44.6915283203125,2,0
1563194093.55391,92,0,65435.04882425001,-1.325358504043495,-0.1743259675968235,0.7501542857598851,-0.3788669407367706,0.05043666064739227,-0.3099529147148132,-0.03628858923912048,-0.01964616775512695,0.007794618606567383,2,0.2378757745027542,-0.2883874773979187,-0.5954281091690063,0.7111350893974304,-0.1268890649080276,-0.6817516684532166,-0.7204955816268921,-1.360763549804688,11.746826171875,-44.90179443359375,2,0
1563194093.573165,93,0,65435.08376725001,-1.344649714766813,-0.1621561146554265,0.7376762723223886,-0.4761521816253662,-0.2795664370059967,-0.297280490398407,0.1433268189430237,-0.07333540916442871,-0.005662918090820312,2,0.2340965270996094,-0.2829066514968872,-0.6018573045730591,0.7091758847236633,-0.1194757372140884,-0.6725701093673706,-0.7303252816200256,-0.9583511352539062,12.49140167236328,-44.8358154296875,2,0
1563194093.60772,94,0,65435.11874025001,-1.349302595472758,-0.1793803312187025,0.7200048070306616,-0.4807067215442657,-0.5250124931335449,0.07592055946588516,-0.004445672035217285,-0.005688071250915527,-0.06628894805908203,2,0.2216345071792603,-0.2846197783946991,-0.6068751811981201,0.7082176208496094,-0.1341365277767181,-0.6593883037567139,-0.7397394776344299,-2.089492797851562,13.40126419067383,-44.85015869140625,2,0
1563194093.638943,95,0,65435.15365225,-1.355322236211874,-0.1745177122202261,0.7091422357254161,-0.225987046957016,0.2804777026176453,-0.170961782336235,-0.05548340082168579,-0.01311343908309937,-0.05174016952514648,2,0.2182041853666306,-0.280518114566803,-0.6093063950538635,0.7088316679000854,-0.131773829460144,-0.651183009147644,-0.747393012046814,-2.175537109375,14.21866989135742,-45.069091796875,2,0
1563194093.671184,96,0,65435.18862525,-1.369353702052503,-0.1555891616513627,0.708630851483093,-0.02103140763938427,0.1788540482521057,-0.3432126641273499,0.03663346171379089,0.01832848787307739,0.005422115325927734,2,0.2218450307846069,-0.275215744972229,-0.6122319102287292,0.7072575092315674,-0.1176555901765823,-0.6507948637008667,-0.7500821352005005,-1.785377502441406,14.2249641418457,-44.81524658203125,2,0
1563194093.70494,97,0,65435.22356825,-1.380857101692359,-0.1503685962961017,0.7070072915087876,-0.1301522105932236,-0.1231817826628685,-0.1259533315896988,0.08275610208511353,0.02005565166473389,0.00204920768737793,2,0.2212674766778946,-0.2741820216178894,-0.6158472299575806,0.7046964764595032,-0.1138962805271149,-0.6495612859725952,-0.7517298460006714,-1.3411865234375,14.40556335449219,-44.84356689453125,2,0
1563194093.736924,98,0,65435.25854125,-1.379827031690215,-0.1511621988548641,0.7015658869745154,-0.1445872485637665,0.1079131513834,0.09773027896881104,0.0175987184047699,0.005625367164611816,-0.0007541775703430176,2,0.2191552370786667,-0.272781640291214,-0.6160188317298889,0.7057492733001709,-0.1150233820080757,-0.6454145312309265,-0.7551223039627075,-1.995201110839844,14.69815063476562,-45.0225830078125,2,0
1563194093.771226,99,0,65435.29348325,-1.378446443219111,-0.1452012340684565,0.6971445701165487,-0.1076799556612968,0.2096738666296005,0.01621625572443008,-0.01092106103897095,-0.007782220840454102,-0.01998698711395264,2,0.2195435613393784,-0.2692494988441467,-0.615239143371582,0.7076624035835266,-0.1109319105744362,-0.6420311331748962,-0.7586106657981873,-1.597023010253906,14.91789627075195,-44.87750244140625,2,0
1563194093.802774,100,0,65435.32845725001,-1.383067453941652,-0.1354655312677264,0.6966112442217708,0.004693855997174978,0.222378209233284,-0.1389797329902649,-0.005751579999923706,-0.0147520899772644,0.02283865213394165,2,0.2217245697975159,-0.2661602199077606,-0.6158444285392761,0.7076246738433838,-0.1035873964428902,-0.6416221261024475,-0.7599939107894897,-0.929931640625,14.81633758544922,-44.9847412109375,2,0
1563194093.847933,101,0,65435.36336925,-1.390124833705992,-0.1215809643019286,0.6972421640265538,-0.02298240549862385,0.2717837691307068,-0.1634678542613983,0.01524096727371216,-0.002717733383178711,0.03574913740158081,2,0.2253028005361557,-0.2622216641902924,-0.6167349219322205,0.7071892023086548,-0.09297645092010498,-0.6421059370040894,-0.760956883430481,-0.7861557006835938,14.97076416015625,-45.1373291015625,2,0
1563194093.86875,102,0,65435.39834225,-1.396244526127203,-0.1090166060851688,0.6965306797931204,-0.02057528123259544,0.1973269134759903,-0.1188576892018318,0.005053579807281494,0.02554559707641602,0.04196465015411377,2,0.2281229346990585,-0.2582643330097198,-0.6175373792648315,0.7070410847663879,-0.08345811069011688,-0.6415603160858154,-0.7625189423561096,-0.4459152221679688,14.85808181762695,-45.18743896484375,2,0
1563194093.913112,103,0,65435.43328425,-1.402233247349381,-0.1005682699679529,0.6973043228803965,0.02241332270205021,0.1383591741323471,-0.1373261064291,0.008432865142822266,0.0149543285369873,0.01936686038970947,2,0.2302457988262177,-0.2561942934989929,-0.6186147332191467,0.7061637043952942,-0.07696333527565002,-0.6421535611152649,-0.7627027034759521,0.0645904541015625,14.90696334838867,-45.1011962890625,2,0
1563194093.93539,104,0,65435.43328425,-1.402233247349381,-0.1005682699679529,0.6973043228803965,0.02241332270205021,0.1383591741323471,-0.1373261064291,0.008432865142822266,0.0149543285369873,0.01936686038970947,2,0.2302457988262177,-0.2561942934989929,-0.6186147332191467,0.7061637043952942,-0.07696333527565002,-0.6421535611152649,-0.7627027034759521,0.0645904541015625,14.90696334838867,-45.1011962890625,2,0
1563194093.973117,105,0,65435.46825825,-1.4069145234548,-0.09044358253644902,0.6998625366178531,0.07090437412261963,0.2229629158973694,-0.04686328396201134,0.03499928116798401,-0.006494224071502686,0.01227360963821411,2,0.2337109744548798,-0.2539232969284058,-0.6188539862632751,0.7056357860565186,-0.06908879429101944,-0.6441125273704529,-0.7618042826652527,0.5582122802734375,14.69562911987305,-45.11871337890625,2,0
1563194094.000685,106,0,65435.50317025001,-1.403869871567319,-0.0849922481828512,0.7082834740852281,0.3445519804954529,0.1802968680858612,0.04281697794795036,0.02269336581230164,0.05123805999755859,0.003500819206237793,2,0.2388352602720261,-0.2541429400444031,-0.6163303256034851,0.7060495615005493,-0.06447219848632812,-0.6505310535430908,-0.7567381858825684,0.6655426025390625,14.73022079467773,-45.050537109375,2,0
1563194094.034344,107,0,65435.53814325001,-1.402275642154909,-0.08189718648266933,0.7193232679010614,0.2711370289325714,0.09216746687889099,-0.03720230981707573,0.003082513809204102,0.006815791130065918,0.0211072564125061,2,0.2439900189638138,-0.2561320960521698,-0.6143154501914978,0.7053238153457642,-0.0615384578704834,-0.6588757634162903,-0.7497304677963257,1.033294677734375,13.72085189819336,-45.0716552734375,2,0
1563194094.066534,108,0,65435.57308525001,-1.408724970163139,-0.07545520987856436,0.7250865647540364,0.09384632110595703,0.08305643498897552,-0.1409640163183212,-0.003087311983108521,0.03311192989349365,0.03082787990570068,2,0.2472252398729324,-0.2563658952713013,-0.6152189373970032,0.7033220529556274,-0.05642027780413628,-0.6632002592086792,-0.7463124394416809,0.9741287231445312,13.5500373840332,-45.0185546875,2,0
1563194094.100312,109,0,65435.60808762501,-1.406284071577723,-0.07288022186373343,0.7268916515989311,0.02773685939610004,0.1307859718799591,0.1090455204248428,0.02287331223487854,0.01599812507629395,0.03517740964889526,2,0.2489794492721558,-0.2556936144828796,-0.6138572692871094,0.7041372060775757,-0.05441108345985413,-0.6645501852035522,-0.7452600002288818,1.230789184570312,13.46636581420898,-44.96826171875,2,0
1563194094.160933,110,0,65435.642999625,-1.403836657253143,-0.07318791172002952,0.7239012026979809,-0.1325603872537613,-0.02657484263181686,0.03228217735886574,0.0008018910884857178,-0.01422381401062012,0.03735256195068359,2,0.2481185495853424,-0.2546099424362183,-0.6133367419242859,0.7052865028381348,-0.05478546768426895,-0.6623125672340393,-0.7472219467163086,1.339744567871094,13.67887496948242,-45.07073974609375,2,0
1563194094.166323,111,0,65435.677972625,-1.405755853157509,-0.07543047548200034,0.719838270600241,-0.1058725640177727,-0.1242590546607971,-0.1005305349826813,-0.005941927433013916,-0.0341489315032959,0.007601499557495117,2,0.2457189112901688,-0.254430890083313,-0.6146995425224304,0.7050046920776367,-0.05666333809494972,-0.6592630743980408,-0.7497742772102356,1.204780578613281,13.57686996459961,-44.9951171875,2,0
1563194094.20819,112,0,65435.712914625,-1.411516635202152,-0.07287813704825491,0.7181992983127065,-0.01489916071295738,0.03311185538768768,-0.08313079178333282,-0.01069116592407227,-0.002682209014892578,-0.0251917839050293,2,0.245181605219841,-0.2537506818771362,-0.6165801286697388,0.7037937641143799,-0.05482808500528336,-0.6580298542976379,-0.7509931325912476,1.114753723144531,13.79197311401367,-45.11419677734375,2,0
1563194094.232292,113,0,65435.747888625,-1.410623072881006,-0.07171704750276663,0.7193953877240367,0.0363040529191494,0.03389818966388702,0.06738313287496567,0.02089712023735046,0.01251554489135742,-0.01665210723876953,2,0.2460835576057434,-0.2535893321037292,-0.6160021424293518,0.7040430903434753,-0.05389963835477829,-0.6589300036430359,-0.750270664691925,0.9289703369140625,14.05774688720703,-45.06103515625,2,0
1563194094.276844,114,0,65435.78280062501,-1.407125473844349,-0.07706389567969224,0.7185701747642255,-0.05187862738966942,-0.1720841974020004,0.05830256268382072,0.005142897367477417,0.001625597476959229,0.006799399852752686,2,0.244584321975708,-0.2547973394393921,-0.6155093312263489,0.7045602202415466,-0.05795227363705635,-0.6583090424537659,-0.7505136728286743,0.95404052734375,13.82781982421875,-45.13287353515625,2,0
1563194094.298154,115,0,65435.81777362501,-1.406470871942559,-0.08468676789454585,0.7162890073949427,-0.04919504746794701,-0.1932772994041443,-0.008100944571197033,-0.03137075901031494,-0.0008711814880371094,0.007128119468688965,2,0.2414959967136383,-0.25672447681427,-0.6164309978485107,0.7041200399398804,-0.06379846483469009,-0.6565901637077332,-0.7515444755554199,0.556884765625,13.83063125610352,-45.03607177734375,2,0
1563194094.333086,116,0,65435.85271662501,-1.410249217746103,-0.08888387743859874,0.7157566300393212,-0.008858864195644855,-0.1844844371080399,-0.09848059713840485,-0.009403139352798462,-0.006048321723937988,0.004699170589447021,2,0.2395212799310684,-0.2584965825080872,-0.6183164715766907,0.7024911642074585,-0.06698322296142578,-0.6561885476112366,-0.7516181468963623,0.3639373779296875,13.87796783447266,-44.99462890625,2,0
1563194094.364165,117,0,65435.887689625,-1.414730886196468,-0.08791923163601306,0.7160680037734797,-0.001550970133394003,0.04301914572715759,-0.09145574271678925,-0.006941646337509155,0.005630433559417725,0.002545833587646484,2,0.23935267329216,-0.2587873339653015,-0.6197432279586792,0.7011830806732178,-0.06624020636081696,-0.6564235091209412,-0.7514788508415222,-0.04767608642578125,13.97089385986328,-45.1220703125,2,0
1563194094.395964,118,0,65435.92263162501,-1.41874377832369,-0.07996399898512883,0.7172591998037519,0.04114928469061852,0.191453218460083,-0.09020975232124329,-0.008832544088363647,0.01125878095626831,0.002330124378204346,2,0.2417300641536713,-0.2568375766277313,-0.6200749278068542,0.7007911205291748,-0.06019748374819756,-0.6573216319084167,-0.7512020468711853,0.1953964233398438,13.85691833496094,-45.1612548828125,2,0
1563194094.431182,119,0,65435.957604625,-1.424782996401683,-0.07016977078092373,0.7185474449043736,0.02737585641443729,0.1386926025152206,-0.1518267542123795,0.005493432283401489,0.003485679626464844,0.0009244680404663086,2,0.2444587498903275,-0.2545285522937775,-0.620868980884552,0.6999834775924683,-0.05277785286307335,-0.6582919359207153,-0.7509102821350098,0.8572235107421875,13.60908889770508,-45.08209228515625,2,0
1563194094.461929,120,0,65435.992517625,-1.430389804029734,-0.06163322343547147,0.7207278097255501,0.05975692346692085,0.1298665255308151,-0.09147290885448456,0.01468047499656677,0.01310569047927856,0.01312744617462158,2,0.2471781522035599,-0.2528901398181915,-0.621554970741272,0.6990128755569458,-0.04627731069922447,-0.6599316596984863,-0.7498990893363953,1.319038391113281,13.77441024780273,-45.05157470703125,2,0
1563194094.515025,121,0,65435.992517625,-1.430389804029734,-0.06163322343547147,0.7207278097255501,0.05975692346692085,0.1298665255308151,-0.09147290885448456,0.01468047499656677,0.01310569047927856,0.01312744617462158,2,0.2471781522035599,-0.2528901398181915,-0.621554970741272,0.6990128755569458,-0.04627731069922447,-0.6599316596984863,-0.7498990893363953,1.319038391113281,13.77441024780273,-45.05157470703125,2,0
1563194094.528386,122,0,65436.02749062501,-1.430633854177385,-0.05875611344635887,0.7224729885024792,0.03194191679358482,0.03683802485466003,0.0160686019808054,0.01295915246009827,0.01436972618103027,0.007880210876464844,2,0.2486632615327835,-0.2524429857730865,-0.6211002469062805,0.6990519165992737,-0.0440518781542778,-0.661241888999939,-0.7488782405853271,1.173759460449219,13.48285675048828,-44.98004150390625,2,0
1563194094.568356,123,0,65436.062432625,-1.430942772205773,-0.05869209499072121,0.7227834753038136,0.002183028031140566,-0.02177773788571358,-0.01730869337916374,-0.001444101333618164,0.006957769393920898,0.009860217571258545,2,0.2487547695636749,-0.2525529861450195,-0.6211674809455872,0.698919951915741,-0.04399189352989197,-0.6614747643470764,-0.7486761212348938,1.061485290527344,13.56668472290039,-44.843505859375,2,0
1563194094.593795,124,0,65436.09740562501,-1.432100376636763,-0.05781478654441969,0.7234522971752561,0.02277782559394836,0.02452327497303486,-0.03667410835623741,-0.01346361637115479,-0.004290103912353516,0.005413174629211426,2,0.24911929666996,-0.2525931596755981,-0.6213920116424561,0.6985758543014526,-0.04330948367714882,-0.6619762182235718,-0.7482725381851196,1.323356628417969,13.51921463012695,-45.01287841796875,2,0
1563194094.633764,125,0,65436.132318625,-1.434686106704884,-0.05558098543857197,0.7239929955830227,0.007259188685566187,-0.01562256831675768,-0.06325645744800568,-0.01249969005584717,-0.003457784652709961,0.01073533296585083,2,0.2496796101331711,-0.2522996664047241,-0.6219587922096252,0.6979772448539734,-0.0416179932653904,-0.6623813509941101,-0.7480099201202393,1.283447265625,13.53441619873047,-45.04144287109375,2,0
1563194094.659807,126,0,65436.167291625,-1.438663845490888,-0.05506003911532783,0.7248658268137613,0.03965258225798607,-0.07074783742427826,-0.09378953278064728,-0.002758771181106567,0.005404651165008545,0.01173591613769531,2,0.2496493607759476,-0.2528798580169678,-0.6231874227523804,0.6966809630393982,-0.04119648411870003,-0.6630350351333618,-0.7474539279937744,1.259963989257812,13.54788589477539,-45.0960693359375,2,0
1563194094.693546,127,0,65436.202233625,-1.441267134512471,-0.05570982024901306,0.7277588732123583,0.09371623396873474,-0.08387473970651627,-0.04129393398761749,0.002807796001434326,0.01316642761230469,0.001872062683105469,2,0.2501422762870789,-0.2543118000030518,-0.6238640546798706,0.6953761577606201,-0.04157517477869987,-0.6651979088783264,-0.7455086708068848,1.364669799804688,13.37274169921875,-45.03759765625,2,0
1563194094.726046,128,0,65436.237206625,-1.442002880936744,-0.05828596256445649,0.7292674197077461,0.01079757325351238,-0.07025846093893051,-0.009237788617610931,-0.002044647932052612,0.007593154907226562,-0.01358312368392944,2,0.2497789263725281,-0.2557581663131714,-0.6242794990539551,0.6946030259132385,-0.04343706741929054,-0.6663235425949097,-0.7443965077400208,1.105445861816406,13.34721374511719,-44.92437744140625,2,0
1563194094.759834,129,0,65436.27211962501,-1.44153988162055,-0.06074751154696058,0.729490266656497,0.01963420957326889,-0.06442422419786453,0.01439718622714281,-0.006676286458969116,0.0001301169395446777,-0.009690165519714355,2,0.2491487562656403,-0.2566229999065399,-0.624401867389679,0.6944003105163574,-0.04526028409600258,-0.6664897203445435,-0.7441390752792358,0.9111251831054688,13.17545318603516,-45.00335693359375,2,0
1563194094.792813,130,0,65436.30709262501,-1.442674317159356,-0.06143784883817076,0.730734520428442,0.04876970499753952,-0.01790576800704002,-0.04282523691654205,-0.02299833297729492,-0.005534946918487549,-0.01024442911148071,2,0.2492281645536423,-0.2573822736740112,-0.6247483491897583,0.693778932094574,-0.04572302848100662,-0.6674168109893799,-0.7432793974876404,0.6409530639648438,13.03455352783203,-45.0157470703125,2,0
1563194094.825467,131,0,65436.34203462501,-1.445197972990294,-0.05921380570809429,0.733795687342656,0.08317728340625763,0.006357373669743538,-0.07368531078100204,-0.01863819360733032,0.004950046539306641,0.006993293762207031,2,0.2506809830665588,-0.2578583359718323,-0.6250156164169312,0.6928373575210571,-0.04394871741533279,-0.6696932911872864,-0.7413362264633179,0.7301025390625,13.02416610717773,-45.05206298828125,2,0
1563194094.876392,132,0,65436.377008625,-1.447376361141339,-0.05993345279859607,0.7361325097380909,0.05537228658795357,-0.06818663328886032,-0.02844992280006409,-0.009195983409881592,0.009399175643920898,0.01116549968719482,2,0.2509998679161072,-0.2590925395488739,-0.6256065964698792,0.6917271614074707,-0.04438834637403488,-0.6714268326759338,-0.739740252494812,0.5192642211914062,13.09857177734375,-45.07330322265625,2,0
1563194094.891534,133,0,65436.411920625,-1.449294214175196,-0.05928411739145106,0.7368026075667055,-0.004786535166203976,-0.02365061640739441,-0.05646605044603348,-0.0185529887676239,-0.004554629325866699,-0.003430366516113281,2,0.2511909306049347,-0.2593131363391876,-0.6261152029037476,0.6911147236824036,-0.04388133063912392,-0.6719232797622681,-0.7393196225166321,0.6957778930664062,13.01514053344727,-44.84661865234375,2,0
1563194094.929529,134,0,65436.44689362501,-1.452785186216101,-0.05861691981957188,0.7375606136437316,0.04517259076237679,-0.03983237966895103,-0.087824746966362,-0.009829193353652954,-0.003581404685974121,0.003658413887023926,2,0.2512140274047852,-0.2597527503967285,-0.6271539926528931,0.6899983882904053,-0.04335819929838181,-0.6724845170974731,-0.7388400435447693,0.6467971801757812,13.01750564575195,-45.04583740234375,2,0
1563194094.957184,135,0,65436.481835625,-1.457461867967249,-0.05670851470109776,0.7399693550598947,0.06038003787398338,-0.04077428579330444,-0.1053885966539383,-0.00782129168510437,-0.001450657844543457,-0.005737185478210449,2,0.2520515620708466,-0.2604207098484039,-0.628260612487793,0.6884328126907349,-0.04185618460178375,-0.6742652654647827,-0.7373021245002747,0.5316009521484375,13.18062210083008,-45.00262451171875,2,0
1563194094.989227,136,0,65436.51680962501,-1.46156266107648,-0.05438559726600836,0.7418798030587375,0.03966239094734192,-0.004113186150789261,-0.07991020381450653,-0.009084999561309814,0.005054891109466553,-0.001024067401885986,2,0.2529173195362091,-0.2607258260250092,-0.6291655898094177,0.6871721148490906,-0.04007328674197197,-0.6756749153137207,-0.736109733581543,0.5912933349609375,12.58330154418945,-44.942626953125,2,0
1563194095.023312,137,0,65436.551751625,-1.464488660812486,-0.05282068566519379,0.7432427682860194,0.03624363243579865,-0.0294682215899229,-0.06034732609987259,-0.002884894609451294,0.004349946975708008,0.005304515361785889,2,0.2535050809383392,-0.2609780728816986,-0.6298196911811829,0.6862599849700928,-0.03887263312935829,-0.6766790151596069,-0.735251247882843,0.5352783203125,12.51232528686523,-44.95599365234375,2,0
1563194095.055702,138,0,65436.551751625,-1.464488660812486,-0.05282068566519379,0.7432427682860194,0.03624363243579865,-0.0294682215899229,-0.06034732609987259,-0.002884894609451294,0.004349946975708008,0.005304515361785889,2,0.2535050809383392,-0.2609780728816986,-0.6298196911811829,0.6862599849700928,-0.03887263312935829,-0.6766790151596069,-0.735251247882843,0.5352783203125,12.51232528686523,-44.95599365234375,2,0
1563194095.09192,139,0,65436.58672462501,-1.467500523835461,-0.05281253185236158,0.7447229168022278,0.03468023240566254,-0.06561820954084396,-0.06740369647741318,-0.002562224864959717,0.009955644607543945,0.02383518218994141,2,0.2536309659481049,-0.2618130147457123,-0.6306848526000977,0.6850998997688293,-0.03881372511386871,-0.6777681112289429,-0.734250545501709,0.4868087768554688,12.48624801635742,-44.981689453125,2,0
1563194095.121033,140,0,65436.62162112501,-1.470188163471339,-0.05247956945142741,0.7443874939867757,-0.04388738423585892,-0.02526645362377167,-0.03935626149177551,0.01278448104858398,0.00685584545135498,0.01954305171966553,2,0.2532671391963959,-0.2619361579418182,-0.6316006183624268,0.6843433380126953,-0.03858116641640663,-0.6775214672088623,-0.7344903945922852,0.6377410888671875,12.34283828735352,-45.01708984375,2,0
1563194095.176204,141,0,65436.656595125,-1.470112292137412,-0.05452263506215654,0.7427150150208344,-0.04461079090833664,-0.06977365911006927,0.02063172310590744,0.007006853818893433,0.003061652183532715,0.01096451282501221,2,0.2520484924316406,-0.2621093392372131,-0.6320209503173828,0.6843389272689819,-0.04014339298009872,-0.6762903928756714,-0.735540509223938,0.4317626953125,12.58954620361328,-44.98583984375,2,0
1563194095.186764,142,0,65436.69153712501,-1.470768233638216,-0.05572444206892124,0.741714860716122,-0.01895062997937202,-0.0516398586332798,-0.03366545587778091,0.001870542764663696,0.003652393817901611,0.00612795352935791,2,0.251233696937561,-0.2622942328453064,-0.6325086355209351,0.6841171383857727,-0.04106499254703522,-0.6755532622337341,-0.7361667156219482,0.2646560668945312,12.71723937988281,-44.8885498046875,2,0
1563194095.233941,143,0,65436.726510125,-1.47310974270964,-0.05538274956910113,0.7408157195249228,-0.03657464683055878,-0.02225638180971146,-0.0463782474398613,0.001408487558364868,0.005690276622772217,0.004001319408416748,2,0.2507213056087494,-0.2621933817863464,-0.6333670020103455,0.6835494041442871,-0.0408470556139946,-0.6748900413513184,-0.7367869019508362,0.1833648681640625,12.71628189086914,-44.98016357421875,2,0
1563194095.252828,144,0,65436.761422125,-1.474126792665191,-0.05559580305170944,0.7395637722492501,-0.04092635959386826,-0.03917164355516434,-0.003089542267844081,0.005839020013809204,0.003377795219421387,0.002592325210571289,2,0.25008425116539,-0.2620062530040741,-0.6338813304901123,0.6833776235580444,-0.04105094447731972,-0.6739656925201416,-0.7376211881637573,0.1074371337890625,12.78776550292969,-45.02435302734375,2,0
1563194095.288443,145,0,65436.79639612501,-1.473852835598218,-0.05713373309095823,0.7374345570615476,-0.06106344237923622,-0.03785308450460434,0.01130664814263582,-0.007440924644470215,0.008273482322692871,-0.0006186962127685547,2,0.2488903850317001,-0.2618386447429657,-0.6342169642448425,0.6835663318634033,-0.04226715490221977,-0.6723911762237549,-0.7389882206916809,0.00974273681640625,12.93098068237305,-45.01239013671875,2,0
1563194095.318749,146,0,65436.831338125,-1.47549525349155,-0.05708242961344622,0.736412867729983,-0.02871518023312092,-0.01316550932824612,-0.05615812912583351,-0.01107123494148254,0.003321051597595215,-0.00173187255859375,2,0.248335525393486,-0.2617089152336121,-0.6348853707313538,0.6831972002983093,-0.04226841032505035,-0.6716346144676208,-0.7396758198738098,-0.08562469482421875,12.96477508544922,-45.0841064453125,2,0
1563194095.354145,147,0,65436.86631112501,-1.477730100077897,-0.05517638248403749,0.7358838772566687,-0.002453483641147614,0.01667520962655544,-0.04148917272686958,-0.004282504320144653,0.0104672908782959,-0.002457857131958008,2,0.2484644800424576,-0.2611714899539948,-0.6354707479476929,0.6828116774559021,-0.04087806865572929,-0.6712425947189331,-0.7401096820831299,-0.08708953857421875,12.69132614135742,-45.19085693359375,2,0
1563194095.384631,148,0,65436.901223125,-1.479970647411335,-0.05372396418843527,0.7365879563465026,0.03222154825925827,-0.009837066754698753,-0.04087883234024048,-0.009761929512023926,-0.0004703998565673828,0.0006992816925048828,2,0.2488784790039062,-0.2611731290817261,-0.6359760165214539,0.6821895837783813,-0.03977768868207932,-0.6717643141746521,-0.739696204662323,-0.2170486450195312,12.80470657348633,-45.1336669921875,2,0
1563194095.418504,149,0,65436.936197125,-1.481887066143253,-0.05213592947091485,0.737288940313042,-0.002290191128849983,-0.001659225672483444,-0.03790905699133873,-0.006078064441680908,-0.005383551120758057,0.0002759099006652832,2,0.2493769079446793,-0.2610884308815002,-0.6363528966903687,0.6816883087158203,-0.03857842460274696,-0.672283411026001,-0.7392879724502563,-0.01493072509765625,12.76259613037109,-45.10150146484375,2,0
1563194095.45069,150,0,65436.971139125,-1.482558188159322,-0.05409474690867513,0.7363438093310798,-0.03338675573468208,-0.08218856155872345,-0.0036685720551759,-0.00770878791809082,0.003560543060302734,0.01487088203430176,2,0.248337522149086,-0.2615452408790588,-0.6369315385818481,0.6813521385192871,-0.04006081819534302,-0.6715834140777588,-0.7398450970649719,-0.007659912109375,13.04134368896484,-44.9560546875,2,0
1563194095.484371,151,0,65437.006112125,-1.483489670453578,-0.05535132847569247,0.734796308336541,-0.04534544795751572,-0.0400102511048317,-0.02875003032386303,-0.01172682642936707,0.0008722543716430664,0.01457476615905762,2,0.2472779303789139,-0.2616068124771118,-0.6375777721405029,0.6811094284057617,-0.04104790836572647,-0.6704360246658325,-0.7408310174942017,-0.2946548461914062,13.21103668212891,-45.08990478515625,2,0
1563194095.527074,152,0,65437.04102412501,-1.486102613892854,-0.0556556717801928,0.7341687315756376,-0.01310520526021719,-0.06471075117588043,-0.06970130652189255,-0.01303443312644958,-8.147954940795898e-05,0.01327300071716309,2,0.2466210722923279,-0.2618374228477478,-0.6385748386383057,0.6803244352340698,-0.04129676893353462,-0.6699702739715576,-0.7412384152412415,-0.4221420288085938,12.9478874206543,-44.97869873046875,2,0
1563194095.55037,153,0,65437.075998125,-1.489346638234643,-0.05454400173825275,0.7340183564132412,-0.004218286834657192,-0.01666209474205971,-0.05449941009283066,0.004244208335876465,0.009542286396026611,-0.001061677932739258,2,0.2464994788169861,-0.2618124783039093,-0.639557421207428,0.6794545650482178,-0.04047822579741478,-0.6698586344718933,-0.7413844466209412,-0.2809600830078125,12.87213516235352,-44.9898681640625,2,0
1563194095.588345,154,0,65437.11094012501,-1.490650440510301,-0.05414738685490084,0.7333608169621529,-0.03818335384130478,-0.04449006915092468,-0.005197124090045691,-0.003945261240005493,0.002263844013214111,-0.002055644989013672,2,0.2462280541658401,-0.2616327106952667,-0.6400251984596252,0.6791817545890808,-0.04020800814032555,-0.6693702340126038,-0.741840124130249,-0.3380279541015625,13.1017951965332,-45.03143310546875,2,0
1563194095.616231,155,0,65437.145913125,-1.491392917446087,-0.05693610465364238,0.7307673910509527,-0.06933809816837311,-0.07662035524845123,-0.01778470166027546,-0.01091852784156799,0.01379358768463135,0.002046704292297363,2,0.2443398088216782,-0.2618590891361237,-0.6409093141555786,0.6789426207542419,-0.04237527400255203,-0.6674413084983826,-0.7434557676315308,-0.4556121826171875,13.13700485229492,-45.1307373046875,2,0
1563194095.655842,156,0,65437.145913125,-1.491392917446087,-0.05693610465364238,0.7307673910509527,-0.06933809816837311,-0.07662035524845123,-0.01778470166027546,-0.01091852784156799,0.01379358768463135,0.002046704292297363,2,0.2443398088216782,-0.2618590891361237,-0.6409093141555786,0.6789426207542419,-0.04237527400255203,-0.6674413084983826,-0.7434557676315308,-0.4556121826171875,13.13700485229492,-45.1307373046875,2,0
1563194095.6821,157,0,65437.18085612501,-1.490409160742743,-0.05714351195394454,0.7314360074741199,0.06029936671257019,0.04041857272386551,0.04207934439182281,0.0058421790599823,0.01459664106369019,0.0002037286758422852,2,0.2446338385343552,-0.2620184123516083,-0.6405261754989624,0.6791368722915649,-0.04250397533178329,-0.6679390072822571,-0.7430012822151184,-0.4439468383789062,13.14020538330078,-45.1063232421875,2,0
1563194095.713942,158,0,65437.215829125,-1.486093662592456,-0.05817529592710001,0.7320915230619092,-0.01188541855663061,0.07853389531373978,0.1237037479877472,0.004828423261642456,-0.01080989837646484,0.00431513786315918,2,0.2450965195894241,-0.2620454728603363,-0.6391129493713379,0.6802899837493896,-0.0432451032102108,-0.6684267520904541,-0.742519736289978,-0.3320541381835938,13.40916061401367,-45.30487060546875,2,0
1563194095.748143,159,0,65437.250741125,-1.481437473876011,-0.0604695933680595,0.7291385925774997,-0.1106492653489113,0.002670565620064735,0.05996996909379959,-0.01002734899520874,0.01880562305450439,0.01107871532440186,2,0.2439464181661606,-0.2613376677036285,-0.6381338834762573,0.6818928718566895,-0.04506763443350792,-0.6662274599075317,-0.7443855404853821,-0.1557540893554688,13.08143997192383,-45.191650390625,2,0
1563194095.780088,160,0,65437.28571412501,-1.480939841186274,-0.05982984760216254,0.7255154435729735,-0.09778965264558792,0.0371532142162323,0.00561214005574584,-0.004790037870407104,0.0009781122207641602,0.01284027099609375,2,0.242953285574913,-0.2599312663078308,-0.6382832527160645,0.6826448440551758,-0.04473545029759407,-0.6635211706161499,-0.7468189001083374,-0.3505859375,13.4597053527832,-45.17919921875,2,0
1563194095.834285,161,0,65437.320657125,-1.481413457189278,-0.05875365288199814,0.7223175884849505,-0.08478223532438278,0.02084349095821381,-0.001456491998396814,0.001656591892242432,0.004396557807922363,0.02121210098266602,2,0.2421209514141083,-0.2586251497268677,-0.6386635899543762,0.683080792427063,-0.04405607283115387,-0.6611253023147583,-0.7489809393882751,-0.3089981079101562,13.63957595825195,-45.10479736328125,2,0
1563194095.845917,162,0,65437.35563012501,-1.480315561468124,-0.05753367311881916,0.7194802879664225,-0.0887189507484436,0.08131792396306992,0.04889719560742378,0.00127798318862915,0.004294753074645996,0.0009177923202514648,2,0.2416627258062363,-0.257191002368927,-0.6384497284889221,0.6839838624000549,-0.04324998706579208,-0.6589938402175903,-0.750903844833374,-0.02927398681640625,13.786376953125,-45.19659423828125,2,0
1563194095.88754,163,0,65437.390542125,-1.478429346042394,-0.05680560262990369,0.7172196963506092,-0.0406169705092907,0.03326060622930527,0.03639784455299377,0.002448439598083496,0.008757531642913818,0.007622122764587402,2,0.241348072886467,-0.2560095191001892,-0.6379616260528564,0.684992790222168,-0.04278773069381714,-0.6572918891906738,-0.7524204850196838,-0.2727127075195312,13.8590087890625,-45.181396484375,2,0
1563194095.91187,164,0,65437.425515125,-1.478728359595056,-0.05449484902121207,0.7157898482535493,-0.05274016037583351,0.1145872473716736,0.003636656329035759,-0.004579305648803711,-0.006953716278076172,0.01685047149658203,2,0.241547703742981,-0.2548081576824188,-0.6379401683807373,0.685390293598175,-0.04110011085867882,-0.656213641166687,-0.7534550428390503,-0.1730880737304688,14.11374664306641,-45.34869384765625,2,0
1563194095.948133,165,0,65437.460458125,-1.476705896212482,-0.05273931074724065,0.7146630235893642,-0.002803723327815533,0.04393734782934189,0.05576145276427269,0.01615557074546814,0.02373552322387695,0.008915960788726807,2,0.2419708222150803,-0.2536102533340454,-0.6371566653251648,0.6864133477210999,-0.03981628268957138,-0.6553629040718079,-0.7542639374732971,-0.03685760498046875,14.10815048217773,-45.343017578125,2,0
1563194095.977802,166,0,65437.495431125,-1.473334582687459,-0.05381309430387399,0.716893519542334,0.09588395059108734,0.04430807381868362,0.05329703539609909,-0.007374972105026245,0.007183611392974854,0.02045798301696777,2,0.2428369969129562,-0.2542648315429688,-0.6358872056007385,0.6870421767234802,-0.0405474491417408,-0.6570460200309753,-0.7527591586112976,0.2522811889648438,14.06251525878906,-45.25897216796875,2,0
1563194096.011677,167,0,65437.53034312501,-1.474088962378211,-0.05280200267565624,0.7194127307046777,0.06159166991710663,-0.008231231011450291,-0.04098950698971748,-0.01003909111022949,-0.002546906471252441,0.02917385101318359,2,0.2439433932304382,-0.2547928094863892,-0.6357491612434387,0.6865822672843933,-0.03969883546233177,-0.6589430570602417,-0.7511444687843323,0.4161224365234375,13.60322189331055,-45.18994140625,2,0
1563194096.04427,168,0,65437.565316125,-1.475500901377041,-0.05166417344303612,0.7218487342877157,0.07857424020767212,0.02821570262312889,-0.02551807649433613,-0.012472003698349,0.003128111362457275,0.02892589569091797,2,0.2449759840965271,-0.255332738161087,-0.6358279585838318,0.6859408020973206,-0.03876112774014473,-0.6607734560966492,-0.749583899974823,0.1088790893554688,13.7238655090332,-45.012939453125,2,0
1563194096.077598,169,0,65437.60025912501,-1.477599127657108,-0.04954174089656367,0.7258273804956998,0.1226885691285133,-0.008347662165760994,-0.06415196508169174,-0.02017456293106079,0.009053051471710205,0.03630900382995605,2,0.2467700690031052,-0.2561018168926239,-0.6358470916748047,0.6849925518035889,-0.0370396114885807,-0.6637545228004456,-0.7470327615737915,0.2954864501953125,13.3653450012207,-45.22357177734375,2,0
1563194096.111107,170,0,65437.63524966667,-1.480780415754041,-0.04795406273923758,0.7288745178158533,0.05020882189273834,-0.01234657689929008,-0.06359807401895523,-0.01074579358100891,0.0006778240203857422,0.03455734252929688,2,0.2479275465011597,-0.2569015920162201,-0.6363998055458069,0.6837608218193054,-0.03575640171766281,-0.6660305261611938,-0.7450670003890991,0.42352294921875,13.1589241027832,-45.2249755859375,2,0
1563194096.143646,171,0,65437.67016166667,-1.484102561095162,-0.04593113688527032,0.7287812633176864,-0.02750731445848942,0.01054698415100574,-0.08174145966768265,-0.003064006567001343,-0.002107501029968262,0.01140511035919189,2,0.248112827539444,-0.256593257188797,-0.6372945308685303,0.6829755902290344,-0.03425196558237076,-0.665960967540741,-0.7451998591423035,0.4579696655273438,13.16197967529297,-45.2431640625,2,0
1563194096.187842,172,0,65437.70513566667,-1.486865491840744,-0.0434945935185552,0.7257948246070991,-0.1378962099552155,0.02178435027599335,-0.04384562745690346,0.002256482839584351,0.0008499622344970703,-0.02525722980499268,2,0.24750055372715,-0.2551688253879547,-0.6382721662521362,0.6828183531761169,-0.03252248466014862,-0.6637301445007324,-0.7472646832466125,0.390777587890625,13.17844390869141,-45.26739501953125,2,0
1563194096.209462,173,0,65437.74007766667,-1.488380318967878,-0.04122025484660411,0.7212610831498103,-0.09220820665359497,0.03645782172679901,-0.01271461974829435,0.01607698202133179,0.007172465324401855,-0.01052916049957275,2,0.2464629411697388,-0.2531564235687256,-0.639018714427948,0.6832444071769714,-0.03094655834138393,-0.6603322625160217,-0.750335693359375,0.4065704345703125,13.55249404907227,-45.1549072265625,2,0
1563194096.252478,174,0,65437.74007766667,-1.488380318967878,-0.04122025484660411,0.7212610831498103,-0.09220820665359497,0.03645782172679901,-0.01271461974829435,0.01607698202133179,0.007172465324401855,-0.01052916049957275,2,0.2464629411697388,-0.2531564235687256,-0.639018714427948,0.6832444071769714,-0.03094655834138393,-0.6603322625160217,-0.750335693359375,0.4065704345703125,13.55249404907227,-45.1549072265625,2,0
1563194096.275337,175,0,65437.77505066667,-1.48633712196655,-0.04062954031717703,0.7211554456574842,0.03406756743788719,0.08531352877616882,0.09202272444963455,-0.02959030866622925,0.002652883529663086,0.0006060004234313965,2,0.2468733191490173,-0.2526693642139435,-0.6382593512535095,0.6839858889579773,-0.03050615079700947,-0.6602529287338257,-0.7504234910011292,0.4182968139648438,13.80550384521484,-45.33929443359375,2,0
1563194096.312602,176,0,65437.80999366667,-1.480612406018611,-0.03818880429962178,0.7205771747229285,-0.03551162034273148,0.2153399288654327,0.1223587095737457,-0.07223948836326599,-0.004800319671630859,0.02042281627655029,2,0.2481708526611328,-0.2509435415267944,-0.6360612511634827,0.6861957311630249,-0.02868904732167721,-0.6598184704780579,-0.7508771419525146,0.6863174438476562,13.94132995605469,-45.33343505859375,2,0
1563194096.341234,177,0,65437.84496666667,-1.470273005813169,-0.03335234963896871,0.7244970356959917,0.1957473307847977,0.4303301572799683,0.2740139961242676,-0.1562944948673248,0.004120945930480957,0.03993535041809082,2,0.2523611187934875,-0.2492100745439529,-0.6314583420753479,0.689542293548584,-0.02497070468962193,-0.6627588868141174,-0.7484164237976074,1.0794677734375,13.53527450561523,-45.2218017578125,2,0
1563194096.375529,178,0,65437.87987866667,-1.457587830317888,-0.0225421674623972,0.7321734289896598,0.2424042075872421,0.586509108543396,0.2339503914117813,-0.2096502482891083,-0.04795205593109131,0.06113171577453613,2,0.2600078582763672,-0.2462290972471237,-0.6248102784156799,0.6938149929046631,-0.01676371321082115,-0.6684876680374146,-0.7435342669487,1.940895080566406,12.90254974365234,-45.356201171875,2,0
1563194096.407216,179,0,65437.91485166667,-1.452941226574354,-0.006788697704698379,0.7370553317879637,0.08207317441701889,0.5259055495262146,0.0274211410433054,-0.1776527762413025,-0.07490861415863037,0.08357518911361694,2,0.2671847641468048,-0.241651326417923,-0.6205483675003052,0.6965175867080688,-0.005026658996939659,-0.6721104383468628,-0.7404338717460632,3.149276733398438,12.76143264770508,-45.29449462890625,2,0
1563194096.439221,180,0,65437.94979466667,-1.452373747198564,0.01505134604003547,0.7341683071378255,-0.1240088045597076,0.6526772379875183,-0.06718234717845917,-0.1980757415294647,-0.03334760665893555,-0.004764914512634277,2,0.2730069756507874,-0.2330560833215714,-0.6177476048469543,0.6996712684631348,0.01117351930588484,-0.6699699759483337,-0.7423040866851807,4.11785888671875,12.82473373413086,-45.14013671875,2,0
1563194096.494283,181,0,65437.98476766667,-1.458023216103453,0.04704406306399549,0.7296644099245149,-0.1786240488290787,0.862868070602417,-0.1234313547611237,-0.1126818358898163,0.04698193073272705,0.02045315504074097,2,0.2806702852249146,-0.2212181091308594,-0.6158593893051147,0.7021424174308777,0.03505362570285797,-0.6666195392608643,-0.7445734739303589,5.540245056152344,12.96296691894531,-45.14300537109375,2,0
1563194096.50512,182,0,65438.01967966667,-1.460533986972725,0.05945384017102707,0.7225655304210216,-0.1296244561672211,-0.08873559534549713,-0.04142971336841583,0.01229426264762878,0.08729898929595947,0.01904952526092529,2,0.281767874956131,-0.2149738669395447,-0.6159026622772217,0.7036027908325195,0.04457074403762817,-0.6613112688064575,-0.7487862110137939,6.625892639160156,13.67428588867188,-45.14434814453125,2,0
1563194096.546766,183,0,65438.05465266667,-1.448577258383982,0.05008883307822664,0.71994473944605,-0.08064169436693192,-0.001604581251740456,0.3689676821231842,0.1074312329292297,0.1711159944534302,0.103696882724762,2,0.279270350933075,-0.2157741039991379,-0.6133332252502441,0.706591784954071,0.03764315322041512,-0.6593431234359741,-0.7508991956710815,6.611221313476562,13.69987487792969,-45.03497314453125,2,0
1563194096.570921,184,0,65438.08959566667,-1.426696392887335,0.04053377703697816,0.7014729392055888,-0.9610698819160461,0.243494838476181,0.6066457629203796,0.14112588763237,0.2412567734718323,0.1584486961364746,2,0.2722142934799194,-0.2103969007730484,-0.6091397404670715,0.7145497798919678,0.03095497004687786,-0.645343542098999,-0.763265073299408,6.744773864746094,14.30999374389648,-44.87298583984375,2,0
1563194096.608206,185,0,65438.12456866667,-1.38442696597722,0.006255467711331616,0.6420051390608477,-2.039342403411865,-0.4839253127574921,0.9527910947799683,0.06484600901603699,0.03829395771026611,0.199992299079895,2,0.2447900027036667,-0.199091300368309,-0.6048783659934998,0.7311379313468933,0.00500995060428977,-0.5988025665283203,-0.800881028175354,6.819816589355469,15.67908477783203,-44.88800048828125,2,0
1563194096.636893,186,0,65438.15948066667,-1.359480850651239,-0.05100919302151589,0.5693151339056595,-1.899433135986328,-1.72157609462738,0.3458852767944336,-0.002658724784851074,0.0220184326171875,0.09392929077148438,2,0.2029544860124588,-0.1955046355724335,-0.6086689829826355,0.7416936755180359,-0.04294490069150925,-0.539055347442627,-0.841174840927124,5.301612854003906,19.48992156982422,-44.75555419921875,2,0
1563194096.676274,187,0,65438.19445366667,-1.351888307213596,-0.1497550062634247,0.521117796579164,-1.153878092765808,-3.030941009521484,0.4554737210273743,0.1143767535686493,0.03113126754760742,0.1494152545928955,2,0.1551885902881622,-0.2171134203672409,-0.6178570985794067,0.7396153807640076,-0.1293921023607254,-0.4978498816490173,-0.8575565218925476,1.5528564453125,22.56733322143555,-44.467041015625,2,0
1563194096.70276,188,0,65438.22939666667,-1.334684972312449,-0.2305596712076534,0.4705687610067821,-1.394334554672241,-1.376553297042847,0.6268526315689087,0.0988074392080307,0.04530972242355347,0.09302270412445068,2,0.1126653850078583,-0.2311793118715286,-0.6189161539077759,0.7421626448631287,-0.2036844491958618,-0.4533933103084564,-0.8677252531051636,-2.718437194824219,24.89011001586914,-43.76727294921875,2,0
1563194096.736688,189,0,65438.26436966667,-1.331750629309626,-0.2600227676091912,0.4242053266637436,-1.182910919189453,-0.650789201259613,0.385641872882843,0.06755578517913818,0.03910666704177856,-0.05961012840270996,2,0.0858541801571846,-0.2286136299371719,-0.6202696561813354,0.7454062104225159,-0.2343145608901978,-0.4115966856479645,-0.8807297348976135,-4.005691528320312,27.08208847045898,-43.2186279296875,2,0
1563194096.768615,190,0,65438.29928166667,-1.320619402070215,-0.281827999123417,0.3883966231206864,-0.7195064425468445,-0.6338285207748413,0.6223698854446411,0.1023671329021454,-0.009463191032409668,-0.1175146698951721,2,0.0663791298866272,-0.2260343730449677,-0.6172731518745422,0.7506504654884338,-0.2573975026607513,-0.3787049353122711,-0.8890045285224915,-4.391014099121094,27.4632453918457,-43.01123046875,2,0
1563194096.803193,191,0,65438.29928166667,-1.320619402070215,-0.281827999123417,0.3883966231206864,-0.7195064425468445,-0.6338285207748413,0.6223698854446411,0.1023671329021454,-0.009463191032409668,-0.1175146698951721,2,0.0663791298866272,-0.2260343730449677,-0.6172731518745422,0.7506504654884338,-0.2573975026607513,-0.3787049353122711,-0.8890045285224915,-4.391014099121094,27.4632453918457,-43.01123046875,2,0
1563194096.853716,192,0,65438.33425466667,-1.298583935117765,-0.3048046634568398,0.3549883567742935,-0.8378810286521912,-0.2091927975416183,0.9371125102043152,0.05206418037414551,-0.03163951635360718,0.003311753273010254,2,0.04865751788020134,-0.224538192152977,-0.6095758080482483,0.7587044239044189,-0.2813953459262848,-0.3475794494152069,-0.8944301009178162,-4.743003845214844,28.55892562866211,-43.330322265625,2,0
1563194096.86892,193,0,65438.36919766667,-1.285266429417371,-0.3084555878331416,0.2997856892116922,-1.638812899589539,0.1988974809646606,0.7319027781486511,0.1090540289878845,-0.02811998128890991,-0.02938258647918701,2,0.02709326893091202,-0.2100280523300171,-0.6039156913757324,0.7684009671211243,-0.2900474071502686,-0.2953154742717743,-0.9103083610534668,-4.467002868652344,30.0713005065918,-43.86993408203125,2,0
1563194096.909747,194,0,65438.40417066667,-1.284696495847263,-0.2798355064441125,0.2422723281476065,-1.437873005867004,1.136520862579346,0.3423572182655334,0.01719701290130615,-0.09311056137084961,-0.03355014324188232,2,0.01287399139255285,-0.1825325638055801,-0.6023693680763245,0.7769602537155151,-0.268131285905838,-0.2399092167615891,-0.9330322742462158,-3.244125366210938,32.4239387512207,-45.29449462890625,2,0
1563194096.93451,195,0,65438.43911366667,-1.283590083953265,-0.2498292460970405,0.2049377318532832,-1.057736992835999,0.19671930372715,0.2007218152284622,-0.03027136623859406,-0.124423623085022,-0.1680699586868286,2,0.007105236407369375,-0.1600328981876373,-0.6010627746582031,0.7829830646514893,-0.2420647144317627,-0.203506201505661,-0.9486779570579529,-2.139549255371094,33.18149185180664,-45.92449951171875,2,0
1563194096.974962,196,0,65438.47408666667,-1.287249700928094,-0.2542132291196562,0.168118272594293,-0.9892367124557495,-0.1163539960980415,0.2711745798587799,0.01414461433887482,-0.08835858106613159,0.003726482391357422,2,-0.009182625450193882,-0.1510222107172012,-0.6016698479652405,0.7842839956283569,-0.2479384243488312,-0.1673274487257004,-0.954215943813324,-2.491615295410156,34.71416854858398,-47.45111083984375,2,0
1563194097.000391,197,0,65438.50899866667,-1.289404645313588,-0.2537004587463167,0.1216579833914575,-1.490713715553284,0.01579089649021626,0.2752865254878998,0.06993454694747925,0.01256430894136429,-0.03236478567123413,2,-0.02768815867602825,-0.1371697336435318,-0.6011765003204346,0.7867684364318848,-0.2491325736045837,-0.1213581040501595,-0.9608356356620789,-3.623291015625,36.32186508178711,-48.91644287109375,2,0
1563194097.032298,198,0,65438.54397166667,-1.302950742483695,-0.2668805034942093,0.07112918850675891,-1.410585522651672,-0.8353216648101807,-0.1987051516771317,-0.04816356301307678,-0.008034147322177887,-0.236073911190033,2,-0.05259865149855614,-0.1270975768566132,-0.6043515205383301,0.7847539782524109,-0.2630568146705627,-0.07106922566890717,-0.9621591567993164,-4.963462829589844,39.57118606567383,-50.03338623046875,2,0
1563194097.066265,199,0,65438.57891466667,-1.315879070446393,-0.2850996562677236,0.04394827601461439,-0.5369149446487427,-0.1581067889928818,-0.02353948354721069,0.0625913143157959,-0.05808144062757492,-0.1151203513145447,2,-0.06964220851659775,-0.1256839036941528,-0.6076092720031738,0.781130313873291,-0.2809815108776093,-0.04393412917852402,-0.9587070345878601,-7.380149841308594,42.20100021362305,-50.52569580078125,2,0
1563194097.098866,200,0,65438.61386516667,-1.315811798652528,-0.2497514878273327,0.02413413711121952,-0.5957310795783997,1.753932356834412,0.2143477201461792,-0.01329830288887024,0.03802675008773804,0.09693408012390137,2,-0.06667904555797577,-0.1058681085705757,-0.6078448891639709,0.7841367721557617,-0.2470911890268326,-0.02413179352879524,-0.9686917066574097,-7.111656188964844,42.7315559387207,-50.76513671875,2,0
1563194097.147143,201,0,65438.64877716667,-1.319480446172679,-0.1695738640225207,0.004430152885198041,-0.3875663280487061,1.915358185768127,0.08003582805395126,-0.07973863184452057,-0.04885461181402206,-0.1646790504455566,2,-0.05016056820750237,-0.06826688349246979,-0.6108565926551819,0.787196159362793,-0.1687606871128082,-0.004430138505995274,-0.9856470823287964,-3.167724609375,44.87307357788086,-51.73150634765625,2,0
1563194097.164255,202,0,65438.68375016667,-1.316816871688716,-0.1358916914599403,-0.004506222663645212,-0.2232129573822021,0.6885944008827209,0.02697733975946903,-0.01324163377285004,0.08181384205818176,-0.07209312915802002,2,-0.04331919550895691,-0.05232604220509529,-0.6103243827819824,0.7892335653305054,-0.1354724615812302,0.004506207536906004,-0.9907708764076233,-0.05127716064453125,46.02714157104492,-52.14385986328125,2,0
1563194097.214431,203,0,65438.71869316667,-1.32661169468522,-0.1109826469284997,-0.01996530686218599,-0.653739869594574,0.8358580470085144,-0.3089582324028015,-0.05883403122425079,0.03745962679386139,0.1293323636054993,2,-0.0420018695294857,-0.03756337985396385,-0.6143104434013367,0.7870498895645142,-0.1107328832149506,0.01996397972106934,-0.9936496615409851,1.356788635253906,46.89667129516602,-52.5538330078125,2,0
1563194097.230013,204,0,65438.75366616667,-1.336729401948466,-0.07696492554700571,-0.04800531762416359,-0.882798969745636,0.8416988849639893,-0.1547936052083969,-0.05822775512933731,-0.09903130680322647,-0.08931303024291992,2,-0.04265735670924187,-0.0153241865336895,-0.6183415055274963,0.7846013903617859,-0.0768003836274147,0.04798687994480133,-0.9958910346031189,3.429580688476562,49.74064254760742,-52.31951904296875,2,0
1563194097.269465,205,0,65438.78857816667,-1.345573872523353,-0.05662368715911874,-0.06609421041426962,-0.2537724673748016,0.6295830011367798,-0.2289622873067856,-0.09706231951713562,-0.04460696130990982,-0.01142638921737671,2,-0.04346173256635666,-0.001545404782518744,-0.6218466758728027,0.7819305062294006,-0.0564698651432991,0.0660460963845253,-0.9962173700332642,3.920692443847656,50.92989730834961,-52.4833984375,2,0
1563194097.29644,206,0,65438.82355116667,-1.337146976137059,-0.006098840334249537,-0.0550800999010835,0.4725031554698944,1.888338804244995,0.5718674063682556,-0.06037918850779533,-0.1855780184268951,0.1880099773406982,2,-0.02349754609167576,0.01467694900929928,-0.6195634007453918,0.7844575047492981,-0.006089553702622652,0.0550522543489933,-0.9984648823738098,5.918983459472656,51.48167037963867,-53.5904541015625,2,0
1563194097.333373,207,0,65438.85849416667,-1.323335061590458,0.02303758743133801,-0.05076966049768034,-0.1866949945688248,-0.2735156714916229,-0.06067812442779541,0.1966499090194702,0.4026639461517334,-0.6034055352210999,2,-0.012949263677001,0.02467941679060459,-0.6144253015518188,0.7884825468063354,0.02300586923956871,0.05074785277247429,-0.9984464645385742,9.759513854980469,51.09950637817383,-55.772216796875,2,0
1563194097.361933,208,0,65438.85849416667,-1.323335061590458,0.02303758743133801,-0.05076966049768034,-0.1866949945688248,-0.2735156714916229,-0.06067812442779541,0.1966499090194702,0.4026639461517334,-0.6034055352210999,2,-0.012949263677001,0.02467941679060459,-0.6144253015518188,0.7884825468063354,0.02300586923956871,0.05074785277247429,-0.9984464645385742,9.759513854980469,51.09950637817383,-55.772216796875,2,0
1563194097.395705,209,0,65438.89346716667,-1.33532505464484,0.02161364712507641,-0.04683974740374347,0.2107371687889099,-0.2417620122432709,-0.3627748191356659,0.01111649349331856,-0.1250584721565247,0.09045183658599854,2,-0.01169909164309502,0.02298208512365818,-0.6191449165344238,0.7848532199859619,0.02158826030790806,0.04682262241840363,-0.9986699223518372,9.799026489257812,51.71545791625977,-57.778076171875,2,0
1563194097.427641,210,0,65438.92837916667,-1.341371498940446,0.005650627978282622,-0.03034460605956535,0.6397303938865662,-0.4656250476837158,-0.08040585368871689,0.03330904617905617,0.00161922350525856,0.0647704005241394,2,-0.01012961845844984,0.01164262183010578,-0.6214829087257385,0.7832757234573364,0.005647996440529823,0.03033994883298874,-0.9995236992835999,8.882194519042969,52.04577255249023,-59.433837890625,2,0
1563194097.4617,211,0,65438.96335216667,-1.335047915741546,-0.01171734685470077,-0.01415027441063233,0.2740804553031921,-0.2780995070934296,0.3141554594039917,0.006570884957909584,0.1204666271805763,0.005751669406890869,2,-0.009183026850223541,-0.0002213031402789056,-0.6189846396446228,0.7853493690490723,-0.01171590574085712,0.01414980180561543,-0.9998312592506409,7.992660522460938,51.25252151489258,-63.57196044921875,2,0
1563194097.507601,212,0,65438.99829516667,-1.330159122536894,-0.01442037239549655,-0.007287005917710986,0.1556098312139511,-0.04052622616291046,0.1114111766219139,-0.01265306025743484,-0.04320438206195831,0.00101393461227417,2,-0.007316368166357279,-0.003424954367801547,-0.6170809268951416,0.7868582606315613,-0.0144194895401597,0.007286941632628441,-0.9998694658279419,8.266212463378906,50.71160507202148,-66.77728271484375,2,0
1563194097.527692,213,0,65439.03326816667,-1.321761382396805,-0.002307323841276349,-0.01386979798459449,-0.3540876805782318,0.7473235130310059,0.2886806130409241,0.05050906166434288,0.09369317442178726,0.0174487829208374,2,-0.006182836834341288,0.003345951205119491,-0.6137908697128296,0.7894373536109924,-0.002307099755853415,0.01386935357004404,-0.9999011754989624,10.09909820556641,49.90581893920898,-70.39599609375,2,0
1563194097.573359,214,0,65439.06821116667,-1.321298819781394,0.01377863056637181,-0.02433121059075835,-0.06706222891807556,0.1304935365915298,-0.1792213618755341,0.07253289967775345,0.155913844704628,0.04532456398010254,2,-0.00537828030064702,0.01290413178503513,-0.6136359572410583,0.7894653081893921,0.01377411652356386,0.0243288092315197,-0.999609112739563,12.74208068847656,49.42697525024414,-70.4493408203125,2,0
1563194097.593573,215,0,65439.10318416667,-1.326072580779272,-0.01214884998299705,-0.01093488701388495,0.6656585335731506,-1.192803859710693,-0.08863856643438339,-0.006699695251882076,0.08168880641460419,0.04567331075668335,2,-0.008047745563089848,-0.001422115368768573,-0.6154659390449524,0.7881211042404175,-0.01214782521128654,0.01093466952443123,-0.9998664259910583,11.53946685791016,48.96321487426758,-70.4300537109375,2,0
1563194097.632207,216,0,65439.13809616667,-1.326639283858348,-0.05392074515862111,0.01535716050726928,0.5981397032737732,-0.9867556691169739,-0.000226613599807024,-0.01877176016569138,-0.01707205735146999,-0.005446493625640869,2,-0.01054987218230963,-0.02596650831401348,-0.6156571507453918,0.7875155210494995,-0.05388826504349709,-0.01535655651241541,-0.9984288811683655,7.543251037597656,47.22768783569336,-71.222900390625,2,0
1563194097.65995,217,0,65439.17306916667,-1.32700718110187,-0.0498985197997415,0.01294602779646307,-0.3333254158496857,0.5640873908996582,-0.007381417322903872,-0.01355386525392532,0.01088262349367142,0.007811963558197021,2,-0.01026578433811665,-0.02363889291882515,-0.6158035397529602,0.7874781489372253,-0.04987363517284393,-0.01294566597789526,-0.9986716508865356,6.283912658691406,46.42596054077148,-71.24896240234375,2,0
1563194097.691356,218,0,65439.20801216667,-1.327678382262748,-0.03257199837643316,0.002517949741869811,-0.2359975427389145,0.395340234041214,0.003359791357070208,-0.01280606538057327,0.003646493889391422,0.02078306674957275,2,-0.00904261227697134,-0.01360241416841745,-0.6160792112350464,0.7875148057937622,-0.032566137611866,-0.002517946995794773,-0.9994664192199707,7.754753112792969,47.36790084838867,-71.0272216796875,2,0
1563194097.725369,219,0,65439.24298516667,-1.327786999797174,-0.02860878090459836,0.0001152675466982289,0.02847789041697979,-0.05144006013870239,-0.004640314728021622,0.007861314341425896,0.01430591568350792,0.02231121063232422,2,-0.008768506348133087,-0.01130125019699335,-0.6161256432533264,0.7875179648399353,-0.02860487811267376,-0.000115267546789255,-0.9995908141136169,8.84234619140625,47.1698112487793,-71.023681640625,2,0
1563194097.757409,220,0,65439.27789716667,-1.327578053433084,-0.03750163846718391,0.005459471155019074,0.1959230750799179,-0.3241507112979889,-0.0003526255022734404,0.008247442543506622,0.01558996737003326,0.01837092638015747,2,-0.009402035735547543,-0.01644992269575596,-0.6160354614257812,0.7874904870986938,-0.0374922901391983,-0.005459444131702185,-0.9992820024490356,8.046318054199219,47.53469467163086,-71.00091552734375,2,0
1563194097.792062,221,0,65439.31287016667,-1.32742417612422,-0.04719720756592314,0.01131106180412885,0.1151852309703827,-0.1808129400014877,-0.005109090358018875,0.0006260238587856293,0.01080456376075745,0.008863091468811035,2,-0.01008256431668997,-0.02206992730498314,-0.6159688830375671,0.7873967289924622,-0.04717667028307915,-0.0113108204677701,-0.9988225102424622,6.996986389160156,46.91501998901367,-71.42413330078125,2,0
1563194097.823143,222,0,65439.34781316667,-1.327554924771111,-0.04350861638931017,0.009087458541432192,-0.08927889168262482,0.1461642682552338,-0.003959299996495247,0.0006359480321407318,0.01314398180693388,0.01482075452804565,2,-0.009823457337915897,-0.01993240416049957,-0.6160223484039307,0.7874152064323425,-0.04349309578537941,-0.009087333455681801,-0.9990124106407166,6.890281677246094,46.70712661743164,-71.27679443359375,2,0
1563194097.867067,223,0,65439.38278616667,-1.327629773153921,-0.04197458954801363,0.008186727319696366,0.01724407635629177,-0.02402769587934017,-0.001361846108920872,0.002461008727550507,0.01393723115324974,0.02449184656143188,2,-0.009706353768706322,-0.01905070431530476,-0.6160529255867004,0.78741455078125,-0.04196085780858994,-0.008186635561287403,-0.9990857243537903,7.05322265625,46.8275032043457,-71.40765380859375,2,0
1563194097.889093,224,0,65439.41769816667,-1.327549614265617,-0.04571203055625077,0.01053510640377524,0.085920549929142,-0.1442818194627762,-0.0004552162135951221,0.002133987843990326,0.01135635189712048,-0.008027255535125732,2,-0.009932042099535465,-0.0212456788867712,-0.6160199046134949,0.7873814105987549,-0.04569357633590698,-0.010534911416471,-0.9988999366760254,7.1097412109375,46.61992263793945,-71.34381103515625,2,0
1563194097.93241,225,0,65439.45267116667,-1.327585962839559,-0.04394508638348064,0.009459812249859263,-0.05588366463780403,0.09796984493732452,-0.002069980604574084,0.002017747610807419,0.01759032532572746,0.02573877573013306,2,-0.009811588563024998,-0.02021875232458115,-0.6160351037979126,0.7873980402946472,-0.04392897710204124,-0.009459671564400196,-0.9989898800849915,6.865470886230469,46.90180587768555,-71.46502685546875,2,0
1563194097.955193,226,0,65439.45267116667,-1.327585962839559,-0.04394508638348064,0.009459812249859263,-0.05588366463780403,0.09796984493732452,-0.002069980604574084,0.002017747610807419,0.01759032532572746,0.02573877573013306,2,-0.009811588563024998,-0.02021875232458115,-0.6160351037979126,0.7873980402946472,-0.04392897710204124,-0.009459671564400196,-0.9989898800849915,6.865470886230469,46.90180587768555,-71.46502685546875,2,0
1563194097.998397,227,0,65439.48761416667,-1.327592503638448,-0.04476761280904835,0.009984049705370366,0.04943863302469254,-0.06982158869504929,-0.001876915572211146,0.004471700638532639,0.01390298455953598,0.01800680160522461,2,-0.009858584031462669,-0.02070397511124611,-0.6160374283790588,0.7873830199241638,-0.04475042968988419,-0.009983884170651436,-0.998948335647583,7.432937622070312,46.65348434448242,-71.5810546875,2,0
1563194098.021034,228,0,65439.52258716667,-1.327611361995588,-0.0445874845599022,0.009923252482945354,-0.01634814776480198,0.03263417631387711,0.000359871075488627,-0.001323401927947998,0.0108057064935565,0.01206451654434204,2,-0.009827234782278538,-0.02061424590647221,-0.6160452961921692,0.7873796224594116,-0.04457051679491997,-0.009923089295625687,-0.9989569783210754,6.979774475097656,46.69712448120117,-71.45770263671875,2,0
1563194098.054946,229,0,65439.55749916667,-1.327591904062506,-0.04487629747742364,0.01016437953096266,0.01215020939707756,-0.01661035977303982,0.0001859548501670361,0.001207958906888962,0.01306092366576195,0.01813745498657227,2,-0.009821047075092793,-0.02080229483544827,-0.6160379648208618,0.7873805165290833,-0.04485891759395599,-0.01016420405358076,-0.9989416003227234,7.25665283203125,46.41445541381836,-71.36773681640625,2,0
1563194098.087296,230,0,65439.59247216667,-1.327598004241525,-0.04471423289335456,0.01005105788746197,-0.00295907398685813,0.004670964553952217,0.0003053968539461493,0.002266854047775269,0.01314599718898535,0.0184205174446106,2,-0.009815814904868603,-0.02070356719195843,-0.6160403490066528,0.7873812317848206,-0.04469707608222961,-0.01005088910460472,-0.9989500045776367,7.144599914550781,46.6328010559082,-71.57049560546875,2,0
1563194098.120842,231,0,65439.6274325,-1.327596326666256,-0.04479229017631341,0.01013066613410575,-0.001587921287864447,0.008329968899488449,-0.001540617318823934,0.001276634633541107,0.01293565984815359,0.01643258333206177,2,-0.009808491915464401,-0.02075881883502007,-0.6160398721694946,0.7873803377151489,-0.04477501660585403,-0.0101304929703474,-0.9989457130432129,7.1339111328125,46.93305587768555,-71.46209716796875,2,0
1563194098.17167,232,0,65439.66240550001,-1.327576792032341,-0.04486737457657622,0.01018876826337414,0.003691903781145811,-0.006150718778371811,0.0008126846514642239,0.001763578504323959,0.01079647429287434,0.01018774509429932,2,-0.009808539412915707,-0.02080636657774448,-0.6160322427749634,0.7873849868774414,-0.04484999552369118,-0.01018859166651964,-0.9989417791366577,6.829925537109375,46.8922004699707,-71.507568359375,2,0
1563194098.186619,233,0,65439.69734850001,-1.327590260042633,-0.04472437621362275,0.0100844229474522,0.001090175937861204,0.0008536484092473984,-0.0003944682539440691,0.0005984604358673096,0.01305727288126945,0.02176135778427124,2,-0.009805720299482346,-0.02071787230670452,-0.6160374879837036,0.7873832583427429,-0.04470719397068024,-0.01008425187319517,-0.9989492297172546,7.213623046875,46.71165084838867,-71.40325927734375,2,0
1563194098.230849,234,0,65439.73232150001,-1.327573025057238,-0.04483213790260394,0.01016469317057882,-0.003967633470892906,0.006277404725551605,0.0008532833307981491,0.0005534477531909943,0.0106045538559556,0.01606422662734985,2,-0.00980712566524744,-0.02078509889543056,-0.616030752658844,0.7873867750167847,-0.04481480643153191,-0.01016451790928841,-0.9989436268806458,7.092842102050781,46.9586067199707,-71.58526611328125,2,0
1563194098.25259,235,0,65439.7672335,-1.327548137611831,-0.04480946962095255,0.01019337006478363,0.003976151812821627,-0.0008626095950603485,0.0007474672747775912,0.000988546758890152,0.01135038584470749,0.01678210496902466,2,-0.009788593277335167,-0.0207851268351078,-0.6160212755203247,0.7873944044113159,-0.04479214921593666,-0.01019319333136082,-0.9989443421363831,7.005218505859375,46.98413467407227,-71.4609375,2,0
1563194098.287871,236,0,65439.8022065,-1.327526812372753,-0.04477970303642638,0.01017254726944241,0.001383864786475897,-0.00349956750869751,3.394787199795246e-06,-0.0003381781280040741,0.01110068615525961,0.01415914297103882,2,-0.009787402115762234,-0.02076710015535355,-0.6160128712654114,0.7874014973640442,-0.04476242139935493,-0.01017237175256014,-0.9989458918571472,7.17181396484375,46.90574264526367,-71.5865478515625,2,0
1563194098.318492,237,0,65439.8371495,-1.327509437643297,-0.04478756697300133,0.01016755740599852,-0.001794310286641121,0.0007418803870677948,0.001130559016019106,0.0008293390274047852,0.0115076806396246,0.01598989963531494,2,-0.009791608899831772,-0.02076874487102032,-0.6160059571266174,0.7874068021774292,-0.04477028176188469,-0.01016738265752792,-0.9989455938339233,7.138221740722656,46.67953872680664,-71.7025146484375,2,0
1563194098.35057,238,0,65439.8721225,-1.327500601934085,-0.04476673626388569,0.0101639733393116,-0.0007456871680915356,0.0003397148102521896,-0.0007369359955191612,0.0005338676273822784,0.01040546409785748,0.01661646366119385,2,-0.009786513634026051,-0.02075948379933834,-0.6160025596618652,0.7874097228050232,-0.04474947229027748,-0.01016379799693823,-0.9989465475082397,6.933265686035156,46.8888053894043,-71.5693359375,2,0
1563194098.384457,239,0,65439.90703450001,-1.327493317477289,-0.04482696658299257,0.0101982020786531,0.0006890813820064068,-0.003942942246794701,0.001195539138279855,0.0005482137203216553,0.0121181458234787,0.0144161581993103,2,-0.009791509248316288,-0.02079377137124538,-0.6159996390342712,0.787411093711853,-0.04480962455272675,-0.01019802503287792,-0.9989435076713562,6.860145568847656,46.81809616088867,-71.50408935546875,2,0
1563194098.416382,240,0,65439.9420075,-1.327477609402561,-0.0448331609881534,0.01019961262256193,0.001271657180041075,0.0007799360901117325,-0.0001732364762574434,0.0002797171473503113,0.01166178751736879,0.01743710041046143,2,-0.009792699478566647,-0.02079672180116177,-0.6159934401512146,0.7874158024787903,-0.04481581225991249,-0.01019943598657846,-0.9989432096481323,7.177818298339844,46.77969741821289,-71.62054443359375,2,0
1563194098.451598,241,0,65439.9769505,-1.327470166303774,-0.0448330902185904,0.0102587728142424,0.002799212466925383,-0.001967426389455795,-0.001003465615212917,0.0007984116673469543,0.0134909488260746,0.01507139205932617,2,-0.009769303724169731,-0.02081494592130184,-0.615990936756134,0.7874175906181335,-0.04481571540236473,-0.01025859266519547,-0.9989426136016846,6.879005432128906,46.58584213256836,-71.69488525390625,2,0
1563194098.482266,242,0,65440.0119235,-1.32743711179312,-0.04479590168882765,0.01026971087852098,-0.0002639014273881912,-0.0002530515193939209,-0.0013396549038589,0.001264791935682297,0.01428007613867521,0.01550018787384033,2,-0.009753198362886906,-0.02080383338034153,-0.6159781813621521,0.787428081035614,-0.04477855935692787,-0.01026953011751175,-0.9989441633224487,6.989349365234375,46.52255630493164,-71.59283447265625,2,0
1563194098.536363,243,0,65440.0468355,-1.327424030482974,-0.04480708268659979,0.01027212042428566,-0.001322684343904257,0.005383189767599106,0.001467241090722382,0.0004672408103942871,0.01086451765149832,0.01612526178359985,2,-0.009755557402968407,-0.02080904133617878,-0.6159729957580566,0.7874319553375244,-0.04478972777724266,-0.01027193944901228,-0.9989436268806458,6.984512329101562,46.8493766784668,-71.729248046875,2,0
1563194098.548178,244,0,65440.0468355,-1.327424030482974,-0.04480708268659979,0.01027212042428566,-0.001322684343904257,0.005383189767599106,0.001467241090722382,0.0004672408103942871,0.01086451765149832,0.01612526178359985,2,-0.009755557402968407,-0.02080904133617878,-0.6159729957580566,0.7874319553375244,-0.04478972777724266,-0.01027193944901228,-0.9989436268806458,6.984512329101562,46.8493766784668,-71.729248046875,2,0
1563194098.590219,245,0,65440.08180850001,-1.327424566220102,-0.04483634062845693,0.01031194478379634,0.0009179948829114437,6.918422877788544e-05,-0.0001906584948301315,0.001305144280195236,0.01078225765377283,0.01540637016296387,2,-0.009748891927301884,-0.02083281986415386,-0.6159733533859253,0.7874311208724976,-0.0448189377784729,-0.01031176187098026,-0.9989418983459473,7.167343139648438,46.24298477172852,-71.5926513671875,2,0
1563194098.61414,246,0,65440.11675150001,-1.327423137808182,-0.0448439130071944,0.0103208723535013,0.001360803376883268,-0.003340652212500572,0.00104141584597528,0.00140424445271492,0.01129471976310015,0.01774054765701294,2,-0.009747693315148354,-0.02083855681121349,-0.6159728169441223,0.7874314188957214,-0.04482649639248848,-0.01032068952918053,-0.9989414811134338,6.591682434082031,46.9601936340332,-71.6396484375,2,0
1563194098.650413,247,0,65440.15172450001,-1.327428723923981,-0.04489844872715571,0.01037436306947053,0.002256741281598806,-0.002541350200772285,-0.0005283228820189834,-0.001089543104171753,0.009883347898721695,0.01567763090133667,2,-0.009743484668433666,-0.02087647095322609,-0.6159751415252686,0.787428617477417,-0.0448809489607811,-0.01037417724728584,-0.9989385008811951,6.781402587890625,47.02119064331055,-71.8055419921875,2,0
1563194098.680122,248,0,65440.1866365,-1.327415563535374,-0.04490436762733505,0.01037731127545437,-0.00072079012170434,-0.0003633331507444382,-0.0003597615286707878,6.076321005821228e-05,0.01011517457664013,0.01648604869842529,2,-0.009744009934365749,-0.02087977342307568,-0.6159699559211731,0.7874325513839722,-0.04488686099648476,-0.0103771248832345,-0.9989382028579712,7.16534423828125,46.55337905883789,-71.6861572265625,2,0
1563194098.714384,249,0,65440.2216095,-1.327389875213221,-0.04489648374172649,0.01038705521806922,-0.0008708206005394459,0.001548349857330322,0.0002561303554102778,0.0001596733927726746,0.01160501409322023,0.01532661914825439,2,-0.009737474843859673,-0.02087979391217232,-0.6159599423408508,0.7874405384063721,-0.04487898200750351,-0.01038686838001013,-0.9989384412765503,6.94830322265625,46.81158065795898,-71.7275390625,2,0
1563194098.746009,250,0,65440.2565525,-1.327368388434557,-0.04492255602257981,0.01043700100540806,0.001337035559117794,-0.002936899662017822,-0.0001360961468890309,0.001299574971199036,0.01183804869651794,0.01671350002288818,2,-0.009725611656904221,-0.02090554125607014,-0.6159517168998718,0.7874464392662048,-0.04490500316023827,-0.01043681148439646,-0.9989367127418518,7.271476745605469,46.68203353881836,-71.6790771484375,2,0
1563194098.779896,251,0,65440.2915255,-1.327381756327807,-0.04496680063472742,0.01047162601163022,0.003910322673618793,-0.002107080072164536,4.407530650496483e-05,9.251758456230164e-05,0.01202524919062853,0.01692473888397217,2,-0.009725743904709816,-0.02093355730175972,-0.6159570217132568,0.7874414920806885,-0.04494918510317802,-0.01047143433243036,-0.9989343881607056,6.974700927734375,46.57455825805664,-71.58734130859375,2,0
1563194098.828952,252,0,65440.3264675,-1.327406651894993,-0.04496005342647246,0.01047108772412177,-0.0008841333910822868,0.001766037195920944,-0.0005065770819783211,0.000574059784412384,0.0127876503393054,0.01584172248840332,2,-0.009724139235913754,-0.02093061432242393,-0.6159668564796448,0.7874338626861572,-0.04494244232773781,-0.01047089602798223,-0.9989346861839294,7.109062194824219,46.90755844116211,-71.85198974609375,2,0
1563194098.845715,253,0,65440.3614415,-1.327386727931484,-0.04495647833215792,0.0104914759554837,0.001652326434850693,-0.0004997123032808304,-0.001335792825557292,0.0002652853727340698,0.01102274656295776,0.01576536893844604,2,-0.009714799001812935,-0.02093558013439178,-0.6159591674804688,0.7874399423599243,-0.04493886232376099,-0.01049128361046314,-0.9989346265792847,6.827667236328125,46.69173812866211,-71.78851318359375,2,0
1563194098.888609,254,0,65440.39635350001,-1.327379020004268,-0.04488559536716949,0.01046811177331339,-0.001011459622532129,0.002169076353311539,0.0003320692339912057,0.0002555288374423981,0.01084680017083883,0.01576876640319824,2,-0.009702088311314583,-0.02090051583945751,-0.6159563064575195,0.7874432802200317,-0.04486806690692902,-0.01046792045235634,-0.9989380836486816,6.571517944335938,46.8394660949707,-71.575439453125,2,0
1563194098.911797,255,0,65440.4313265,-1.327380868137227,-0.04487636974443077,0.0104769321924917,0.0001178644597530365,-8.777529001235962e-05,0.0001426280941814184,4.793703556060791e-05,0.01026052515953779,0.01554024219512939,2,-0.009695792570710182,-0.02089959010481834,-0.6159571409225464,0.7874427437782288,-0.04485884681344032,-0.01047674007713795,-0.9989383816719055,6.828643798828125,46.89303207397461,-71.65087890625,2,0
1563194098.953427,256,0,65440.46626850001,-1.32736747285205,-0.04485130332385417,0.01047205331844312,0.0003754682838916779,9.782426059246063e-05,0.001475509139709175,-0.0002212487161159515,0.01066762860864401,0.01648741960525513,2,-0.009689854457974434,-0.02088828384876251,-0.6159519553184509,0.7874471545219421,-0.04483380913734436,-0.01047186180949211,-0.998939573764801,6.849517822265625,46.83876419067383,-71.57568359375,2,0
1563194098.977499,257,0,65440.5012425,-1.327352591313366,-0.04489122126950081,0.01051681735490041,0.002468754537403584,-0.002820210531353951,-0.0006461692391894758,0.0005052313208580017,0.01097177900373936,0.01511186361312866,2,-0.009684366174042225,-0.0209178552031517,-0.6159462332725525,0.7874508500099182,-0.04487366229295731,-0.01051662303507328,-0.9989373087882996,7.080436706542969,46.72885513305664,-71.596923828125,2,0
1563194099.01024,258,0,65440.53615450001,-1.327344640691655,-0.04490655616209457,0.01050771925105815,0.00157178845256567,-0.004067759960889816,0.0005193891702219844,-0.0001050829887390137,0.01087112445384264,0.01443994045257568,2,-0.009692586958408356,-0.02092112973332405,-0.6159429550170898,0.787453293800354,-0.04488898813724518,-0.01050752587616444,-0.9989367127418518,6.977607727050781,46.95629501342773,-71.68963623046875,2,0
1563194099.0436,259,0,65440.57112750001,-1.327359125178751,-0.04494729709884294,0.01052870435976424,-0.0004205964505672455,0.003071894869208336,0.0004918540362268686,4.238635301589966e-05,0.01229590550065041,0.01608580350875854,2,-0.009697022847831249,-0.02094356156885624,-0.6159486174583435,0.7874481678009033,-0.04492967575788498,-0.0105285095050931,-0.9989346861839294,6.756515502929688,46.65923690795898,-71.76519775390625,2,0
1563194099.075558,260,0,65440.60606950001,-1.327360484155315,-0.04496542271804071,0.01051667277169897,5.571078509092331e-05,-0.0008717551827430725,-0.000648938468657434,0.0001825466752052307,0.01178033649921417,0.01539850234985352,2,-0.009707356803119183,-0.02094698697328568,-0.6159489750862122,0.7874476909637451,-0.0449477843940258,-0.01051647868007421,-0.9989339709281921,6.759002685546875,46.97873306274414,-71.6622314453125,2,0
1563194099.111635,261,0,65440.60606950001,-1.327360484155315,-0.04496542271804071,0.01051667277169897,5.571078509092331e-05,-0.0008717551827430725,-0.000648938468657434,0.0001825466752052307,0.01178033649921417,0.01539850234985352,2,-0.009707356803119183,-0.02094698697328568,-0.6159489750862122,0.7874476909637451,-0.0449477843940258,-0.01051647868007421,-0.9989339709281921,6.759002685546875,46.97873306274414,-71.6622314453125,2,0
1563194099.142074,262,0,65440.64105216667,-1.327324252270651,-0.04496355117021179,0.01053483647563359,0.002302879467606544,-0.001426368951797485,0.0002435435308143497,-0.0006280653178691864,0.01208840683102608,0.01539838314056396,2,-0.009699247777462006,-0.02095201797783375,-0.6159348487854004,0.7874587178230286,-0.04494590684771538,-0.01053464133292437,-0.9989338517189026,6.735908508300781,47.02905654907227,-71.6431884765625,2,0
1563194099.194935,263,0,65440.67596416667,-1.327315769952085,-0.0449834095226217,0.01050672219300006,6.854534149169922e-06,-0.002434877678751945,0.00126962352078408,2.119690179824829e-06,0.01042760815471411,0.01619124412536621,2,-0.009716346859931946,-0.02095122262835503,-0.6159312129020691,0.7874613404273987,-0.04496575891971588,-0.01050652842968702,-0.9989332556724548,6.808647155761719,46.85014724731445,-71.75482177734375,2,0
1563194099.207281,264,0,65440.71093716667,-1.327312723864969,-0.0449726397659009,0.01048397746801961,-0.0005552060902118683,-0.0003838147968053818,-0.0003478945000097156,-0.0003595910966396332,0.0111220283433795,0.01574945449829102,2,-0.00972195528447628,-0.02093999460339546,-0.615929901599884,0.787462592124939,-0.04495501145720482,-0.01048378553241491,-0.9989339709281921,6.676849365234375,46.88907241821289,-71.7303466796875,2,0
1563194099.250104,265,0,65440.74587916667,-1.327311382878974,-0.0449815760205171,0.01045530225903422,-0.001716820988804102,0.001690531149506569,-0.0008843420073390007,-1.497194170951843e-05,0.01058981940150261,0.01716840267181396,2,-0.009735986590385437,-0.0209346916526556,-0.615929126739502,0.7874631285667419,-0.04496395215392113,-0.01045511197298765,-0.9989339113235474,7.016555786132812,46.64226150512695,-71.656494140625,2,0
1563194099.273209,266,0,65440.78085316667,-1.327324592391252,-0.04496809601339734,0.01041994661151521,-0.001025901641696692,0.00187050923705101,-0.0006380974664352834,0.0007345005869865417,0.0108291283249855,0.01723045110702515,2,-0.009745895862579346,-0.02091843448579311,-0.6159341335296631,0.7874595522880554,-0.04495050013065338,-0.01041975803673267,-0.9989348649978638,7.007225036621094,46.89004135131836,-71.7864990234375,2,0
1563194099.309755,267,0,65440.81576516667,-1.327325739928669,-0.04500384730830901,0.01045724073067007,0.002567778341472149,-0.0008805263787508011,0.0005464301211759448,-0.0001758784055709839,0.01204133499413729,0.01582461595535278,2,-0.009742229245603085,-0.02094398625195026,-0.6159346699714661,0.787458598613739,-0.04498619586229324,-0.01045705005526543,-0.9989328980445862,6.506240844726562,46.98878860473633,-71.626220703125,2,0
1563194099.339081,268,0,65440.85073816667,-1.327334004410111,-0.04497428914164392,0.01043128198697429,-0.0005968296900391579,0.001939866691827774,-0.002556714462116361,0.0002218484878540039,0.0116339111700654,0.01629924774169922,2,-0.009743437170982361,-0.02092431671917439,-0.6159378886222839,0.7874565124511719,-0.04495668411254883,-0.01043109316378832,-0.9989344477653503,6.57733154296875,46.88683700561523,-71.6046142578125,2,0
1563194099.375281,269,0,65440.88568016667,-1.327317344171866,-0.04499463036299508,0.01042807173387969,-0.001275683753192425,0.001054560765624046,-4.759174771606922e-06,-0.0005818083882331848,0.01062362268567085,0.01562696695327759,2,-0.009750792756676674,-0.0209314189851284,-0.6159312129020691,0.7874614000320435,-0.04497700557112694,-0.01042788289487362,-0.9989336133003235,6.790931701660156,47.11445236206055,-71.74603271484375,2,0
1563194099.404953,270,0,65440.92065416667,-1.327324412526177,-0.04498896048162049,0.0103858793155797,0.0001281434670090675,-0.002295700833201408,-0.0004798979498445988,-0.0006790272891521454,0.01126808021217585,0.01620751619338989,2,-0.009765735827386379,-0.02091616205871105,-0.6159337162971497,0.787459671497345,-0.04497136175632477,-0.01038569305092096,-0.998934268951416,6.706802368164062,47.04440689086914,-71.573974609375,2,0
1563194099.438969,271,0,65440.95559616667,-1.327310217411006,-0.04500078334179671,0.01039258174925241,2.410728484392166e-05,-0.002072658389806747,-0.001593300490640104,-0.0006061941385269165,0.01113745104521513,0.01564234495162964,2,-0.009766587987542152,-0.02092294953763485,-0.6159281134605408,0.787463903427124,-0.04498316720128059,-0.0103923948481679,-0.9989336729049683,6.945526123046875,46.6223258972168,-71.784912109375,2,0
1563194099.491864,272,0,65440.99056916667,-1.32732552416477,-0.04498650447458319,0.01036516484404908,-0.002213925123214722,0.001777840778231621,0.001171655836515129,-0.0004068240523338318,0.01127788797020912,0.01657402515411377,2,-0.009773148223757744,-0.02090881206095219,-0.6159340143203735,0.7874595522880554,-0.04496891796588898,-0.01036497950553894,-0.9989346265792847,6.702659606933594,47.03474044799805,-71.73504638671875,2,0
1563194099.505045,273,0,65441.02548216667,-1.327310420673187,-0.04499443227828653,0.01035260306713722,-0.0007408508099615574,0.001887653023004532,0.001126959919929504,-0.0002768449485301971,0.01128058508038521,0.01549047231674194,2,-0.009780378080904484,-0.02090813964605331,-0.6159279346466064,0.7874642610549927,-0.04497684165835381,-0.01035241782665253,-0.9989343881607056,6.969367980957031,46.70627975463867,-71.4945068359375,2,0
1563194099.547842,274,0,65441.06045516667,-1.327343277540366,-0.0449777101173712,0.01038230874379044,0.0005317134782671928,-0.0007361266762018204,-0.0003881066804751754,-0.0003088414669036865,0.01094406750053167,0.01350724697113037,2,-0.009763873182237148,-0.02091054059565067,-0.6159411668777466,0.7874540686607361,-0.04496012255549431,-0.01038212236016989,-0.998934805393219,6.795799255371094,46.7856559753418,-71.714111328125,2,0
1563194099.57065,275,0,65441.09539716667,-1.327345787282303,-0.04495220807932352,0.01035114497964007,0.001167823560535908,0.000302562490105629,0.0004017633618786931,-0.00102093443274498,0.01086713653057814,0.01517194509506226,2,-0.009768319316208363,-0.02089089341461658,-0.6159420609474182,0.7874537706375122,-0.04493466392159462,-0.01035096030682325,-0.9989362955093384,6.748664855957031,46.89850997924805,-71.6004638671875,2,0
1563194099.614809,276,0,65441.13037016667,-1.327345761991373,-0.04495094635486031,0.01033651639250877,-0.0001069642603397369,0.0004341304302215576,0.001281581935472786,-0.0002897903323173523,0.01079147029668093,0.01640808582305908,2,-0.009773689322173595,-0.0208858922123909,-0.6159419417381287,0.7874540090560913,-0.04493340849876404,-0.01033633202314377,-0.9989365339279175,6.560569763183594,47.03717422485352,-71.56793212890625,2,0
1563194099.636608,277,0,65441.16528316667,-1.32734961810827,-0.0449803874655102,0.01036882188552272,0.0005883453413844109,-0.003668722696602345,0.001413656980730593,-0.0003519654273986816,0.01090005971491337,0.01550614833831787,2,-0.009770074859261513,-0.02090741135179996,-0.6159435510635376,0.787452220916748,-0.0449628047645092,-0.01036863587796688,-0.9989348649978638,7.41058349609375,46.72365951538086,-71.75146484375,2,0
1563194099.668677,278,0,65441.16528316667,-1.32734961810827,-0.0449803874655102,0.01036882188552272,0.0005883453413844109,-0.003668722696602345,0.001413656980730593,-0.0003519654273986816,0.01090005971491337,0.01550614833831787,2,-0.009770074859261513,-0.02090741135179996,-0.6159435510635376,0.787452220916748,-0.0449628047645092,-0.01036863587796688,-0.9989348649978638,7.41058349609375,46.72365951538086,-71.75146484375,2,0
1563194099.702646,279,0,65441.20025616667,-1.327319128533682,-0.04495401794637057,0.01035406586640368,0.0003548385575413704,0.002227405086159706,0.0009444293100386858,0.0006440281867980957,0.009862964972853661,0.01530915498733521,2,-0.009767446666955948,-0.02089263498783112,-0.6159315705299377,0.7874619960784912,-0.04493647068738937,-0.01035388093441725,-0.9989361763000488,6.90557861328125,47.0278205871582,-71.65191650390625,2,0
1563194099.735074,280,0,65441.23519816667,-1.327316436712444,-0.04493731706342944,0.01031690887326744,0.001419882290065289,-0.0003744196146726608,0.001946717733517289,0.0004289932548999786,0.01022254582494497,0.01692771911621094,2,-0.009776907041668892,-0.0208746325224638,-0.6159303188323975,0.787463366985321,-0.04491980373859406,-0.01031672582030296,-0.9989373087882996,6.823158264160156,46.76691818237305,-71.5755615234375,2,0
1563194099.768479,281,0,65441.27017116667,-1.327298189077856,-0.04497284323498831,0.01030427286496793,0.001431693322956562,-0.0009811539202928543,-0.001384974457323551,-0.0005883872509002686,0.009981030598282814,0.01656001806259155,2,-0.009792633354663849,-0.02088481932878494,-0.6159228682518005,0.7874687314033508,-0.0449552983045578,-0.01030409056693316,-0.998935878276825,6.820808410644531,46.92148208618164,-71.722900390625,2,0
1563194099.800447,282,0,65441.30508416667,-1.327291349350295,-0.04495692394304978,0.01031139450667791,0.000754406675696373,6.251223385334015e-05,-0.0001273556845262647,-0.0003754235804080963,0.01105625834316015,0.01555359363555908,2,-0.00978485494852066,-0.02088077738881111,-0.6159203052520752,0.7874709367752075,-0.04493939131498337,-0.01031121145933867,-0.9989364743232727,6.555587768554688,46.85656356811523,-71.69378662109375,2,0
1563194099.851198,283,0,65441.34005716667,-1.32728648909178,-0.04494828670108624,0.01030607589279921,-0.0002529704943299294,-0.0004155896604061127,-0.000999435200355947,0.0001805126667022705,0.01176810264587402,0.01425701379776001,2,-0.00978423934429884,-0.02087576314806938,-0.6159183979034424,0.7874725461006165,-0.04493076726794243,-0.01030589360743761,-0.9989369511604309,6.715560913085938,46.58102035522461,-71.76934814453125,2,0
