loggingTime,loggingSample,identifierForVendor,motionTimestamp_sinceReboot,motionYaw,motionRoll,motionPitch,motionRotationRateX,motionRotationRateY,motionRotationRateZ,motionUserAccelerationX,motionUserAccelerationY,motionUserAccelerationZ,motionAttitudeReferenceFrame,motionQuaternionX,motionQuaternionY,motionQuaternionZ,motionQuaternionW,motionGravityX,motionGravityY,motionGravityZ,motionMagneticFieldX,motionMagneticFieldY,motionMagneticFieldZ,motionMagneticFieldCalibrationAccuracy,label
1563194080.262947,1,0,65421.76744525001,-0.8908486774890865,0.05510459557352335,1.106165399507218,0.1277872771024704,0.1543607264757156,0.03477372974157333,-0.03048679232597351,0.007772266864776611,0.06407010555267334,2,0.4839766025543213,-0.2050860226154327,-0.3534075915813446,0.7738277912139893,0.02467948384582996,-0.8939869999885559,-0.4474127292633057,18.02732086181641,-7.494098663330078,-37.68878173828125,2,0
1563194080.291815,2,0,65421.80235725,-0.8915489136910458,0.05395525171516761,1.109226915318954,-0.04249120503664017,-0.1132229045033455,0.01625886373221874,0.02115464210510254,-0.001129806041717529,-0.01628804206848145,2,0.4848663210868835,-0.2062807381153107,-0.3535778224468231,0.7728749513626099,0.02401752583682537,-0.8953546285629272,-0.4447058141231537,18.16893768310547,-7.682506561279297,-37.514404296875,2,0
1563194080.325832,3,0,65421.83733025,-0.8893107856703777,0.03954613209513139,1.106728484858337,-0.05384983122348785,-0.4378341436386108,0.02655686065554619,0.009530395269393921,0.00152432918548584,-0.01714283227920532,2,0.4815899133682251,-0.2108351737260818,-0.3565000593662262,0.7723518013954163,0.01769581250846386,-0.8942391872406006,-0.4472393691539764,17.92542266845703,-7.602043151855469,-37.61248779296875,2,0
1563194080.358036,4,0,65421.87227325,-0.8853139277382449,0.01770594870774369,1.102935052815591,-0.1354915350675583,-0.5225779414176941,0.07141996175050735,0.0164925754070282,0.001788616180419922,0.004743814468383789,2,0.4766502678394318,-0.2176019102334976,-0.360637366771698,0.7716182470321655,0.00798458606004715,-0.8925348520278931,-0.4509078562259674,16.98337554931641,-7.487327575683594,-38.0037841796875,2,0
1563194080.410386,5,0,65421.90724625,-0.8781790791049791,-0.006066190837155552,1.099936631382977,-0.07596658170223236,-0.4440155923366547,0.1064783185720444,-0.01694786548614502,-0.02663630247116089,0.02154803276062012,2,0.4719787538051605,-0.2245305329561234,-0.3638617098331451,0.7709907293319702,-0.002751925960183144,-0.8911786079406738,-0.453644186258316,16.18788146972656,-7.642360687255859,-38.2509765625,2,0
1563194080.424294,6,0,65421.94215825001,-0.8645994423584241,-0.03334790256955125,1.095291575470435,-0.1260901540517807,-0.4864561557769775,0.2252342253923416,0.01869276165962219,-0.04799389839172363,-0.01338279247283936,2,0.4667492210865021,-0.2310385257005692,-0.3655212819576263,0.7714664936065674,-0.01526341494172812,-0.8890617489814758,-0.4575327336788177,15.54978179931641,-7.398078918457031,-38.41204833984375,2,0
1563194080.472336,7,0,65421.97713125,-0.8398808969133711,-0.07760932405986477,1.090523861217332,-0.1074444726109505,-0.6555600762367249,0.4150406122207642,0.05998188257217407,-0.07203644514083862,0.01740837097167969,2,0.4596990644931793,-0.2415816783905029,-0.3666952550411224,0.7719129920005798,-0.03582113981246948,-0.8868690729141235,-0.4606301188468933,14.60117340087891,-7.423439025878906,-38.89453125,2,0
1563194080.489741,8,0,65422.01207425001,-0.8034990322440483,-0.1279774600888351,1.077446359972446,-0.6500105857849121,-0.1961160600185394,0.5420804023742676,0.006090164184570312,-0.03704553842544556,-0.01549482345581055,2,0.4497620165348053,-0.2507210671901703,-0.365152895450592,0.7755749225616455,-0.06044213846325874,-0.8807513117790222,-0.4697061479091644,13.08791351318359,-6.998466491699219,-39.33197021484375,2,0
1563194080.531084,9,0,65422.04704725,-0.7706594841072597,-0.1647671428393002,1.050472449284988,-0.6071944832801819,-0.2927229106426239,0.5404654145240784,0.02157309651374817,0.01077783107757568,0.0478547215461731,2,0.4363139569759369,-0.2538033723831177,-0.3623335659503937,0.7835358381271362,-0.08154569566249847,-0.8676581978797913,-0.4904279708862305,12.02176666259766,-6.228439331054688,-39.9610595703125,2,0
1563194080.555513,10,0,65422.08199025,-0.7418562442932229,-0.209418056244937,1.03914733608391,-0.02726484835147858,-0.641269326210022,0.4133137762546539,0.05754342675209045,0.03939509391784668,0.03874802589416504,2,0.4273227453231812,-0.2635441720485687,-0.3612859547138214,0.7857558131217957,-0.1053913161158562,-0.8619722723960876,-0.4958794713020325,11.33319854736328,-5.905452728271484,-40.25006103515625,2,0
1563194080.59165,11,0,65422.11696325,-0.7217713617864052,-0.2437695599898844,1.042759303304283,0.1911945939064026,-0.3604938089847565,0.178303524851799,-0.00807720422744751,0.06812155246734619,0.04980301856994629,2,0.4253087341785431,-0.2732052505016327,-0.3605726063251495,0.7838742136955261,-0.12160774320364,-0.8637977838516235,-0.4889427423477173,10.19541168212891,-6.043003082275391,-40.42669677734375,2,0
1563194080.62139,12,0,65422.15187525001,-0.7234487621210044,-0.2492439280034957,1.051506889195676,0.2809565365314484,-0.06000921875238419,-0.1987690925598145,-0.0549396276473999,0.0958409309387207,0.0979277491569519,2,0.4277005791664124,-0.2767814695835114,-0.3620645701885223,0.7806237936019897,-0.1224139481782913,-0.8681720495223999,-0.4809284508228302,9.661972045898438,-6.324657440185547,-40.3516845703125,2,0
1563194080.655659,13,0,65422.15187525001,-0.7234487621210044,-0.2492439280034957,1.051506889195676,0.2809565365314484,-0.06000921875238419,-0.1987690925598145,-0.0549396276473999,0.0958409309387207,0.0979277491569519,2,0.4277005791664124,-0.2767814695835114,-0.3620645701885223,0.7806237936019897,-0.1224139481782913,-0.8681720495223999,-0.4809284508228302,9.661972045898438,-6.324657440185547,-40.3516845703125,2,0
1563194080.687343,14,0,65422.18684825001,-0.7362723783711804,-0.2373893445857819,1.061367973165976,0.1716399490833282,0.01474490575492382,-0.246269702911377,-0.04905539751052856,0.01582199335098267,0.05142104625701904,2,0.4321364760398865,-0.2761473059654236,-0.364113837480545,0.7774457335472107,-0.1146853491663933,-0.8730234503746033,-0.4740014672279358,9.678756713867188,-6.935096740722656,-40.076416015625,2,0
1563194080.721428,15,0,65422.22179125001,-0.7529780750197582,-0.2281732273655767,1.065171116430087,0.02619036287069321,-0.2184444069862366,-0.2489154189825058,-0.05964186787605286,0.004242181777954102,0.01707041263580322,2,0.4330727458000183,-0.2766726016998291,-0.3684318661689758,0.7746987342834473,-0.1095602288842201,-0.8748718500137329,-0.4718005359172821,9.819831848144531,-7.104301452636719,-40.08380126953125,2,0
1563194080.772316,16,0,65422.25676425001,-0.7700661247946727,-0.2096801739371597,1.066585386138284,0.03506674990057945,0.2365155220031738,-0.2310995757579803,-0.02101776003837585,-0.01722967624664307,0.03820604085922241,2,0.4347178637981415,-0.2734094262123108,-0.3709638118743896,0.7737270593643188,-0.1005593538284302,-0.8755559325218201,-0.4725353419780731,9.880096435546875,-6.869369506835938,-40.2218017578125,2,0
1563194080.787211,17,0,65422.29167625,-0.7855286578230468,-0.1824742585738081,1.070976022794238,0.09308177977800369,0.4888336658477783,-0.2322903722524643,0.03799718618392944,-0.006694614887237549,0.01777112483978271,2,0.4394554495811462,-0.2668771743774414,-0.3707481920719147,0.7734347581863403,-0.08696953952312469,-0.8776686787605286,-0.4713109731674194,10.72962188720703,-6.809246063232422,-39.9989013671875,2,0
1563194080.832801,18,0,65422.32664925,-0.8022629302765392,-0.1481683963872764,1.07546296919276,0.1053702980279922,0.6558792591094971,-0.2437912076711655,-0.0009531080722808838,-0.03723782300949097,0.03710031509399414,2,0.4454160630702972,-0.2579653561115265,-0.3693369030952454,0.773723840713501,-0.07017071545124054,-0.8798103332519531,-0.4701168239116669,11.68109130859375,-6.97894287109375,-39.64166259765625,2,0
1563194080.853643,19,0,65422.36159225,-0.8050186782213241,-0.13235541494855,1.077351592650851,0.03555844351649284,0.2790814638137817,0.0205780416727066,0.04518952965736389,-0.09722447395324707,-0.001826643943786621,2,0.4487317502498627,-0.2527448534965515,-0.3667323589324951,0.774769127368927,-0.06250891089439392,-0.8807064294815063,-0.469519704580307,12.54405975341797,-6.723003387451172,-39.35791015625,2,0
1563194080.892035,20,0,65422.39656525,-0.7946034692862709,-0.1388100684161092,1.074604585568701,-0.0954350158572197,0.004400927573442459,0.2047288417816162,0.02308556437492371,-0.005053162574768066,-0.04052621126174927,2,0.4477651119232178,-0.2524996101856232,-0.3643395006656647,0.7765352725982666,-0.0658726692199707,-0.8794019818305969,-0.4715006947517395,12.7027587890625,-6.962158203125,-39.5018310546875,2,0
1563194080.919028,21,0,65422.43147725001,-0.7866286209499344,-0.1487911767639851,1.070857549147791,-0.08799927681684494,-0.07915802299976349,0.0810810849070549,0.00820961594581604,0.00342637300491333,-0.0375860333442688,2,0.4454493522644043,-0.2540417611598969,-0.3637306392192841,0.7776488661766052,-0.07106342166662216,-0.8776119351387024,-0.4740753173828125,12.53710174560547,-6.601211547851562,-39.53155517578125,2,0
1563194080.951594,22,0,65422.46645025,-0.7880813872312906,-0.1495821467366218,1.06825970948897,-0.06582434475421906,-0.02204537577927113,-0.03868632018566132,0.01240295171737671,0.02134382724761963,-0.05115282535552979,2,0.4440726041793823,-0.2542905807495117,-0.3646478652954102,0.7779252529144287,-0.07177787274122238,-0.8763636350631714,-0.4762716591358185,12.56572723388672,-6.462448120117188,-39.58221435546875,2,0
1563194080.984822,23,0,65422.50139325,-0.7952267674456112,-0.1434780377999099,1.067942912018293,-0.009980373084545135,0.01639154739677906,-0.08830255270004272,-0.001939713954925537,0.001645326614379883,-0.05621707439422607,2,0.4441529810428619,-0.2534566819667816,-0.3660926818847656,0.7774727940559387,-0.06890903413295746,-0.8762109875679016,-0.476975679397583,12.49835205078125,-6.369781494140625,-39.503173828125,2,0
1563194081.016888,24,0,65422.53636625,-0.7995275040814002,-0.1407393039135839,1.070524097169149,0.1377032846212387,-0.02851255238056183,-0.04967409744858742,-0.03403511643409729,-0.005170762538909912,-0.03162848949432373,2,0.4451484978199005,-0.2537358701229095,-0.3669724762439728,0.7763969302177429,-0.06728500872850418,-0.87745201587677,-0.474921852350235,12.38359832763672,-6.672977447509766,-39.507080078125,2,0
1563194081.051989,25,0,65422.57127825,-0.8005958187863071,-0.1406070701604439,1.074605304226409,0.06700418144464493,-0.01374118961393833,-0.0100710503757,-0.01770874857902527,-0.004243195056915283,0.01349174976348877,2,0.4466772079467773,-0.2545367479324341,-0.3670659065246582,0.7752116918563843,-0.06671977788209915,-0.8794023394584656,-0.4713810384273529,12.45021057128906,-6.602519989013672,-39.54083251953125,2,0
1563194081.082775,26,0,65422.60622975,-0.8004837548200998,-0.1410015605051944,1.074924126350019,0.00312254810705781,0.01649474538862705,0.01212473679333925,-0.02725160121917725,0.0007606744766235352,0.0285077691078186,2,0.4467471241950989,-0.2547125816345215,-0.3670877516269684,0.7751032710075378,-0.06686631590127945,-0.8795540332794189,-0.471077024936676,12.43858337402344,-6.589179992675781,-39.444580078125,2,0
1563194081.129189,27,0,65422.64117275,-0.8006361558702324,-0.1411398046304549,1.074235453181578,-0.03311457857489586,-0.0005598738789558411,0.004150291904807091,-0.0132158100605011,0.001668810844421387,0.0382533073425293,2,0.44642573595047,-0.2546966373920441,-0.3672269880771637,0.7752277255058289,-0.06701663136482239,-0.8792261481285095,-0.4716673791408539,12.46961212158203,-6.849124908447266,-39.52410888671875,2,0
1563194081.148705,28,0,65422.67614575,-0.8027841382368409,-0.1407818010357205,1.072780329336673,-0.05003923177719116,-0.03425751626491547,-0.03104466013610363,-0.004431396722793579,0.003080368041992188,0.03759020566940308,2,0.4456334412097931,-0.2548176050186157,-0.3680839836597443,0.7752374410629272,-0.06702723354101181,-0.8785319924354553,-0.4729576408863068,12.41494750976562,-6.742904663085938,-39.466552734375,2,0
1563194081.194473,29,0,65422.71105775001,-0.8068473230949286,-0.1374328246473515,1.069020119257214,-0.130459263920784,0.02067177928984165,-0.0300849974155426,0.01526495814323425,0.0009884238243103027,0.03317606449127197,2,0.4442237019538879,-0.253852516412735,-0.3691859245300293,0.7758389115333557,-0.06589504331350327,-0.8767296075820923,-0.4764484167098999,12.66037750244141,-6.627597808837891,-39.5247802734375,2,0
1563194081.214666,30,0,65422.71105775001,-0.8068473230949286,-0.1374328246473515,1.069020119257214,-0.130459263920784,0.02067177928984165,-0.0300849974155426,0.01526495814323425,0.0009884238243103027,0.03317606449127197,2,0.4442237019538879,-0.253852516412735,-0.3691859245300293,0.7758389115333557,-0.06589504331350327,-0.8767296075820923,-0.4764484167098999,12.66037750244141,-6.627597808837891,-39.5247802734375,2,0
1563194081.252124,31,0,65422.74603075,-0.8103972249830136,-0.1350967882626971,1.066022746002584,-0.07670653611421585,-0.0340128056704998,-0.03742596879601479,0.01415464282035828,-0.007094323635101318,0.02447038888931274,2,0.4430016279220581,-0.2532748579978943,-0.3702636957168579,0.776212751865387,-0.06513550877571106,-0.8752840161323547,-0.4792028069496155,12.59471130371094,-6.536296844482422,-39.6058349609375,2,0
1563194081.280459,32,0,65422.78097375001,-0.8147623907867051,-0.1324614446367296,1.062688801110908,-0.1153215393424034,0.002389846369624138,-0.0367133766412735,0.02340862154960632,-0.01678311824798584,0.01625323295593262,2,0.4415993690490723,-0.2527027726173401,-0.371620774269104,0.7765495777130127,-0.06425746530294418,-0.8736668229103088,-0.4822626113891602,12.64508819580078,-6.291969299316406,-39.52618408203125,2,0
1563194081.314526,33,0,65422.81594675,-0.8182377009266077,-0.1287335155567387,1.060031158929508,-0.07098755985498428,0.04745492339134216,-0.02200543507933617,0.02755439281463623,-0.01310437917709351,0.01694345474243164,2,0.4407874941825867,-0.2516077160835266,-0.3723459541797638,0.7770189642906189,-0.06275705248117447,-0.872370719909668,-0.4847998917102814,12.90267944335938,-6.121139526367188,-39.7821044921875,2,0
1563194081.346395,34,0,65422.85088875001,-0.8218279738025197,-0.1242914526318268,1.057835765968167,-0.05982162803411484,0.04714306443929672,-0.04240905493497849,0.02467674016952515,-0.007617831230163574,0.02027559280395508,2,0.4402835071086884,-0.2503275275230408,-0.3729283809661865,0.777438759803772,-0.06084021553397179,-0.8712953925132751,-0.4869731366634369,12.87712860107422,-6.00665283203125,-39.83966064453125,2,0
1563194081.380278,35,0,65422.88586275,-0.8269001931807518,-0.1177633750113078,1.057230280574251,-0.01648025587201118,0.09199374169111252,-0.06290891766548157,0.01290750503540039,-0.006862163543701172,0.03069216012954712,2,0.4406260251998901,-0.2488109320402145,-0.373509019613266,0.7774527668952942,-0.05772190541028976,-0.8709980845451355,-0.4878836572170258,13.11640167236328,-5.825859069824219,-39.89739990234375,2,0
1563194081.431197,36,0,65422.92077475,-0.8315939092656063,-0.1093970178028225,1.056290190328315,-0.05777762830257416,0.1556640565395355,-0.06053444743156433,0.0009184479713439941,-0.005691826343536377,0.0293622612953186,2,0.4412310719490051,-0.2464417070150375,-0.3735637664794922,0.777837872505188,-0.05372750386595726,-0.8705358505249023,-0.4891632497310638,13.12648010253906,-5.485187530517578,-39.73846435546875,2,0
1563194081.44631,37,0,65422.95574775001,-0.8361821844395599,-0.09946537110896356,1.054503176190908,-0.03402833268046379,0.1892259120941162,-0.04399495199322701,0.003430724143981934,-0.01636850833892822,0.01252806186676025,2,0.4418093264102936,-0.2432993203401566,-0.3733017444610596,0.7786242961883545,-0.04902113974094391,-0.8696550726890564,-0.4912199079990387,13.57598876953125,-5.689548492431641,-39.78643798828125,2,0
1563194081.485991,38,0,65422.99069075,-0.8405178386365674,-0.08929783720648274,1.053732828692443,-0.02897423505783081,0.198028177022934,-0.05796085298061371,0.004186272621154785,-0.007868349552154541,0.008891880512237549,2,0.4428743422031403,-0.2401713579893112,-0.3728059828281403,0.7792276740074158,-0.04408392682671547,-0.8692744970321655,-0.4923600852489471,13.94964599609375,-5.568351745605469,-39.62994384765625,2,0
1563194081.512096,39,0,65423.02566375001,-0.8446942266371266,-0.07982680781611577,1.051911390362081,-0.0638095960021019,0.1696197986602783,-0.03593917191028595,-0.003571063280105591,0.003863990306854248,0.001892328262329102,2,0.4434148669242859,-0.2371007353067398,-0.3724920451641083,0.7800104022026062,-0.03954505920410156,-0.8683726787567139,-0.4943329989910126,14.17951965332031,-5.437328338623047,-39.86273193359375,2,0
1563194081.555056,40,0,65423.06057575,-0.8466796800829938,-0.07397824366189289,1.050730936888426,-0.02619888447225094,0.1076332777738571,-0.01947786286473274,-0.012184739112854,-0.003847897052764893,-0.02204024791717529,2,0.4437992870807648,-0.2350603640079498,-0.3720730245113373,0.7806090116500854,-0.03672898933291435,-0.867786705493927,-0.4955776333808899,14.36865997314453,-5.556179046630859,-39.487548828125,2,0
1563194081.578115,41,0,65423.09554875,-0.8490870511422474,-0.06867973832348941,1.049592062229462,-0.02660125866532326,0.09688732773065567,-0.01833969727158546,0.01560705900192261,-0.004979133605957031,-0.008598864078521729,2,0.4440498948097229,-0.2333327680826187,-0.3719381392002106,0.7810490131378174,-0.0341704748570919,-0.8672201633453369,-0.4967510104179382,14.817626953125,-5.483547210693359,-39.630126953125,2,0
1563194081.612239,42,0,65423.13049175,-0.8498959814716357,-0.06539877682728676,1.048911230657634,-0.01981685683131218,0.08386952430009842,0.00222576642408967,0.006875008344650269,-0.005363762378692627,-0.006130695343017578,2,0.4442949891090393,-0.2321146875619888,-0.3715867102146149,0.7814397215843201,-0.03257904574275017,-0.8668809533119202,-0.4974494576454163,14.91692352294922,-5.325565338134766,-39.612548828125,2,0
1563194081.643985,43,0,65423.16546475,-0.8494060467572503,-0.06593063112381807,1.048880548203919,0.01039602607488632,-0.02755953371524811,0.01586787216365337,0.01109322905540466,-0.005043327808380127,-0.006533622741699219,2,0.4442408680915833,-0.2322084456682205,-0.3715161979198456,0.7814761400222778,-0.03284536302089691,-0.8668656945228577,-0.4974585771560669,14.86671447753906,-5.356971740722656,-39.66650390625,2,0
1563194081.675985,44,0,65423.20037675001,-0.8507863016092385,-0.06683662632047906,1.048087008430749,-0.03620769456028938,-0.05442363768815994,-0.02430325001478195,0.008324354887008667,-0.001349687576293945,0.00202643871307373,2,0.4435964822769165,-0.2327332049608231,-0.3723280131816864,0.7812997102737427,-0.03334197774529457,-0.8664698004722595,-0.4981148242950439,14.57632446289062,-5.263637542724609,-39.4456787109375,2,0
1563194081.711834,45,0,65423.23534975,-0.8536329762558544,-0.06628994612334475,1.04692615675579,-0.0326274149119854,-0.05764475837349892,-0.03548922017216682,0.01338297128677368,-0.001487076282501221,-0.0001109838485717773,2,0.4429055750370026,-0.2329517304897308,-0.3734234571456909,0.7811037302017212,-0.0331362709403038,-0.8658896684646606,-0.4991362988948822,14.71116638183594,-5.258285522460938,-39.67291259765625,2,0
1563194081.741946,46,0,65423.27029275001,-0.855328099571902,-0.06724030379110509,1.046900458273347,0.01602490805089474,-0.04612990096211433,-0.00323036964982748,0.005512148141860962,-0.00769507884979248,0.001008808612823486,2,0.4425199329853058,-0.2336935549974442,-0.3742979764938354,0.7806820869445801,-0.03361211344599724,-0.8658767938613892,-0.4991268515586853,14.71161651611328,-5.103996276855469,-39.52459716796875,2,0
1563194081.798209,47,0,65423.30526575,-0.85545663202427,-0.06811476722976928,1.048092107954764,0.03308596462011337,0.000258762389421463,0.002794725820422173,0.002628147602081299,-0.005955219268798828,0.01198875904083252,2,0.4428146183490753,-0.234267994761467,-0.3744340538978577,0.7802774310112,-0.03397831320762634,-0.8664723634719849,-0.4980674386024475,14.72933197021484,-5.296680450439453,-39.5850830078125,2,0
1563194081.808493,48,0,65423.30526575,-0.85545663202427,-0.06811476722976928,1.048092107954764,0.03308596462011337,0.000258762389421463,0.002794725820422173,0.002628147602081299,-0.005955219268798828,0.01198875904083252,2,0.4428146183490753,-0.234267994761467,-0.3744340538978577,0.7802774310112,-0.03397831320762634,-0.8664723634719849,-0.4980674386024475,14.72933197021484,-5.296680450439453,-39.5850830078125,2,0
1563194081.852118,49,0,65423.34017775,-0.8562280677258364,-0.06805951062568455,1.048726622444789,0.007561332080513239,-0.003509597852826118,-0.009999020956456661,0.001403599977493286,-0.003899097442626953,0.01043498516082764,2,0.4429865479469299,-0.2345262765884399,-0.374665379524231,0.7799911499023438,-0.03391339257359505,-0.866788923740387,-0.4975206851959229,14.70908355712891,-5.452285766601562,-39.5272216796875,2,0
1563194081.873625,50,0,65423.37515075001,-0.8573170902769675,-0.06801932356408905,1.04802559858808,-0.02654603682458401,-0.02058408968150616,-0.006479444913566113,0.006856977939605713,-0.002173781394958496,0.01298028230667114,2,0.4425880014896393,-0.2346311509609222,-0.3751446306705475,0.7799555063247681,-0.03393469005823135,-0.8664391040802002,-0.4981281757354736,14.50660705566406,-5.147960662841797,-39.37640380859375,2,0
1563194081.910138,51,0,65423.41009375,-0.8578698583292521,-0.06886169506949248,1.047274144784904,-0.01625504903495312,-0.03143008053302765,0.0006639519706368446,0.00942695140838623,-0.005692243576049805,0.01007592678070068,2,0.4420666098594666,-0.2349525541067123,-0.3756144642829895,0.7799283266067505,-0.03439907729625702,-0.8660637140274048,-0.4987488090991974,14.56825256347656,-5.113292694091797,-39.5621337890625,2,0
1563194081.939947,52,0,65423.44506675001,-0.8577619079431068,-0.06980007513411944,1.047089268152633,0.004291067365556955,-0.009058685973286629,0.01280773524194956,-0.0002868771553039551,-0.00596773624420166,0.01226305961608887,2,0.4418295919895172,-0.2352627962827682,-0.3757964074611664,0.779881477355957,-0.03487824648618698,-0.8659712672233582,-0.4988760650157928,14.63371276855469,-5.062313079833984,-39.5650634765625,2,0
1563194081.974379,53,0,65423.47997875,-0.8575233032486816,-0.07031175580903072,1.046665701212553,-0.01751191914081573,0.002262908965349197,0.01138604246079922,0.004648059606552124,-0.002990305423736572,0.0158151388168335,2,0.4415932595729828,-0.2353367954492569,-0.3758545219898224,0.7799649834632874,-0.03515927121043205,-0.8657593727111816,-0.4992239773273468,14.57025146484375,-5.224552154541016,-39.522705078125,2,0
1563194082.005427,54,0,65423.51495175,-0.8578057576455108,-0.07059585187409427,1.045889136676468,-0.02612032182514668,-0.004666902124881744,0.003057539230212569,0.009079158306121826,-0.001212477684020996,0.01029562950134277,2,0.4411980807781219,-0.2353764027357101,-0.3760972321033478,0.7800596356391907,-0.03534850850701332,-0.8653704524040222,-0.4998843967914581,14.69599914550781,-5.132835388183594,-39.6319580078125,2,0
1563194082.039476,55,0,65423.54989475,-0.8583653857422376,-0.07047890353790948,1.046140698879814,0.008520994335412979,0.002322068437933922,-0.006390320137143135,0.01190453767776489,-0.00210881233215332,0.009533345699310303,2,0.4412541389465332,-0.2354975193738937,-0.3762670457363129,0.7799094915390015,-0.03527471795678139,-0.8654965162277222,-0.4996713995933533,14.65386962890625,-4.979862213134766,-39.61248779296875,2,0
1563194082.07135,56,0,65423.58486775,-0.8598708119449839,-0.06964058264894406,1.046597099155312,0.02615329809486866,-0.008770662359893322,-0.01312602497637272,0.01269426941871643,-0.007968544960021973,0.005643963813781738,2,0.4414159059524536,-0.2355815172195435,-0.3766278326511383,0.7796183824539185,-0.03482833132147789,-0.865725040435791,-0.4993066787719727,14.47998046875,-5.006729125976562,-39.573974609375,2,0
1563194082.105967,57,0,65423.619816625,-0.8612439644278471,-0.06873937237247052,1.047143270679542,0.002499484922736883,0.01572413183748722,-0.01348288357257843,0.005711674690246582,-0.002751469612121582,0.01304638385772705,2,0.4416407346725464,-0.235627755522728,-0.3769145905971527,0.7793384194374084,-0.0343458503484726,-0.8659982681274414,-0.4988660514354706,14.48667907714844,-5.135623931884766,-39.48626708984375,2,0
1563194082.152104,58,0,65423.65479062501,-0.8623951976479088,-0.0679205919098331,1.047087081734108,-0.003179776947945356,-0.002891499549150467,-0.00170968275051564,0.002437949180603027,-0.003618836402893066,0.006912708282470703,2,0.4416371583938599,-0.2355531454086304,-0.3771874308586121,0.779231071472168,-0.03394068777561188,-0.8659701347351074,-0.4989426732063293,14.66969299316406,-5.010337829589844,-39.4381103515625,2,0
1563194082.171203,59,0,65423.689702625,-0.8626103643179486,-0.06813191326884269,1.046604722604936,-0.02964978478848934,0.01333661563694477,0.006608208175748587,-0.001075088977813721,-0.004561781883239746,0.009442806243896484,2,0.4413806200027466,-0.2355995178222656,-0.3773618638515472,0.7792778611183167,-0.03407454863190651,-0.8657288551330566,-0.4993520379066467,14.45274353027344,-4.764877319335938,-39.4698486328125,2,0
1563194082.210766,60,0,65423.724675625,-0.8617969080758382,-0.06880095448360331,1.046124426358561,-0.004266565665602684,0.005038617178797722,0.0223514623939991,0.0009049475193023682,-0.003291666507720947,0.007408559322357178,2,0.4411596059799194,-0.235597550868988,-0.3772360980510712,0.7794645428657532,-0.03443721681833267,-0.8654883503913879,-0.4997439980506897,14.58464050292969,-5.040069580078125,-39.703369140625,2,0
1563194082.237101,61,0,65423.759617625,-0.8615315128300511,-0.06958055920350688,1.045594715439414,-0.01498421374708414,0.0002582352608442307,0.003233286552131176,0.002714842557907104,-0.0008867383003234863,0.0170244574546814,2,0.4408335387706757,-0.235751286149025,-0.3773525655269623,0.7795461416244507,-0.03485867753624916,-0.8652228713035583,-0.5001742243766785,14.61814880371094,-5.197414398193359,-39.63592529296875,2,0
1563194082.279221,62,0,65423.794591625,-0.8628719906971571,-0.068343728596557,1.044883250853721,-0.02801845036447048,0.02275941893458366,-0.01554535888135433,0.01526090502738953,-0.001502931118011475,0.009776949882507324,2,0.4406266510486603,-0.2354414016008377,-0.3776670098304749,0.7796044945716858,-0.03428205102682114,-0.8648659586906433,-0.5008310079574585,14.64128112792969,-4.819362640380859,-39.7496337890625,2,0
1563194082.303481,63,0,65423.82950362501,-0.8652384789930406,-0.06652160237043811,1.043856882489472,-0.03353395313024521,0.0006455201655626297,-0.03569194674491882,0.008807510137557983,-0.003696739673614502,0.004787921905517578,2,0.4402853548526764,-0.2350740432739258,-0.3782817125320435,0.7796100974082947,-0.03342840075492859,-0.8643502593040466,-0.5017780065536499,14.60538482666016,-4.934761047363281,-39.6563720703125,2,0
1563194082.334982,64,0,65423.86447662501,-0.8686284030666787,-0.06395502284115569,1.042193982183,-0.0463862232863903,0.004972822964191437,-0.03163541853427887,0.006177365779876709,-0.003847062587738037,0.008197426795959473,2,0.4397138059139252,-0.2345288991928101,-0.3791910409927368,0.7796551585197449,-0.03223226219415665,-0.8635128140449524,-0.5032959580421448,14.66331481933594,-4.779193878173828,-39.782958984375,2,0
1563194082.368889,65,0,65423.89941862501,-0.870712621442011,-0.06195028960793758,1.041118583299753,-0.03711176663637161,0.01056785881519318,-0.01981018483638763,-0.001930356025695801,-0.004893183708190918,0.002198576927185059,2,0.439423680305481,-0.2340167462825775,-0.3796623349189758,0.7797431945800781,-0.03128068894147873,-0.8629699349403381,-0.504285991191864,14.62175750732422,-4.747753143310547,-39.71417236328125,2,0
1563194082.400903,66,0,65423.89941862501,-0.870712621442011,-0.06195028960793758,1.041118583299753,-0.03711176663637161,0.01056785881519318,-0.01981018483638763,-0.001930356025695801,-0.004893183708190918,0.002198576927185059,2,0.439423680305481,-0.2340167462825775,-0.3796623349189758,0.7797431945800781,-0.03128068894147873,-0.8629699349403381,-0.504285991191864,14.62175750732422,-4.747753143310547,-39.71417236328125,2,0
1563194082.453749,67,0,65423.93439262501,-0.8717197368682384,-0.06159029172180299,1.040237533800821,-0.01740490645170212,-0.00875816959887743,0.001836520386859775,-0.002721160650253296,-0.003827869892120361,0.002297043800354004,2,0.4390249848365784,-0.2339424192905426,-0.3800575733184814,0.7797976136207581,-0.03114593960344791,-0.8625244498252869,-0.5050560235977173,14.70659637451172,-4.461124420166016,-39.70050048828125,2,0
1563194082.467004,68,0,65423.969304625,-0.8724231169011155,-0.0614626702836364,1.039417581993828,-0.02750680968165398,8.192844688892365e-05,-0.009816407226026058,-0.003230482339859009,-0.0005959868431091309,0.009231925010681152,2,0.4386419951915741,-0.2339025139808655,-0.3803799152374268,0.7798678874969482,-0.03112490847706795,-0.8621092438697815,-0.5057656168937683,14.87480926513672,-4.615268707275391,-39.6912841796875,2,0
1563194082.511453,69,0,65424.004277625,-0.8735612247387174,-0.06084765997985834,1.038171179932137,-0.03859979286789894,-0.001884544268250465,-0.006790585350245237,0.007388085126876831,-0.005408883094787598,0.006965875625610352,2,0.4381319284439087,-0.2336920946836472,-0.3808046579360962,0.7800104022026062,-0.03087917156517506,-0.8614770174026489,-0.5068568587303162,14.98147583007812,-4.293968200683594,-39.8255615234375,2,0
1563194082.532733,70,0,65424.039219625,-0.8744898459383876,-0.06038677728486392,1.037233708540743,-0.02311644144356251,-0.01656175777316093,-0.01060716155916452,0.009537875652313232,-0.003535211086273193,0.01219558715820312,2,0.4377396404743195,-0.2335498481988907,-0.3811530768871307,0.7801030874252319,-0.03069429285824299,-0.8610005974769592,-0.5076769590377808,14.97166442871094,-4.578838348388672,-39.65374755859375,2,0
1563194082.573379,71,0,65424.07419362501,-0.8759707623810716,-0.06033046287859284,1.035892380918193,-0.04789800569415092,-0.02578724734485149,-0.008068921975791454,0.005077570676803589,-0.003836452960968018,0.01710295677185059,2,0.4370457231998444,-0.2336140424013138,-0.3818432092666626,0.780135452747345,-0.0307353101670742,-0.860317587852478,-0.5088310241699219,14.84194183349609,-4.557464599609375,-39.71234130859375,2,0
1563194082.598686,72,0,65424.109105625,-0.8766338166642038,-0.05980462062666277,1.034455197824516,-0.03989031538367271,0.02705881185829639,0.009183812886476517,0.001374393701553345,-0.007545173168182373,0.01531577110290527,2,0.4364990293979645,-0.2332985997200012,-0.3821208775043488,0.7803998589515686,-0.03054160438477993,-0.8595840930938721,-0.5100806951522827,14.60674285888672,-4.5234375,-39.9111328125,2,0
1563194082.632599,73,0,65424.144078625,-0.8766066674005463,-0.05953155274758681,1.033163020178271,-0.04799032211303711,0.01888876594603062,0.005085740704089403,0.00328478217124939,-0.004391312599182129,0.01440280675888062,2,0.4360419511795044,-0.2329564094543457,-0.3821709752082825,0.780733048915863,-0.03046838007867336,-0.858923077583313,-0.5111974477767944,14.76084899902344,-4.616764068603516,-40.02337646484375,2,0
1563194082.664529,74,0,65424.179020625,-0.8781231488666513,-0.05869852966685977,1.03040405818443,-0.08125436305999756,-0.01149432733654976,-0.01660674996674061,0.009299874305725098,-0.0008324384689331055,0.01576852798461914,2,0.4349304437637329,-0.2324701398611069,-0.3828385770320892,0.7811707258224487,-0.03018143214285374,-0.8575069308280945,-0.5135862827301025,14.71540069580078,-4.393745422363281,-39.93292236328125,2,0
1563194082.698408,75,0,65424.213994625,-0.8799075886750026,-0.0576475760992619,1.028242339030787,-0.05274207517504692,-0.0009247269481420517,-0.0175334308296442,0.008973687887191772,-0.001534104347229004,0.008875012397766113,2,0.4340668916702271,-0.2320610582828522,-0.3835088610649109,0.7814438939094543,-0.02974839508533478,-0.8563928008079529,-0.5154672265052795,14.75444030761719,-4.386123657226562,-39.83538818359375,2,0
1563194082.731969,76,0,65424.24890662501,-0.8816535705493458,-0.05626903639526816,1.026820571343587,-0.03945299983024597,0.01242475584149361,-0.01365664508193731,0.009567677974700928,-0.005122244358062744,0.0004410147666931152,2,0.4335649609565735,-0.2316462993621826,-0.3840250372886658,0.781592071056366,-0.02910622023046017,-0.8556578159332275,-0.5167228579521179,14.80945587158203,-4.243328094482422,-40.0025634765625,2,0
1563194082.764461,77,0,65424.28387962501,-0.8830941733090479,-0.05518705945032586,1.025854882378326,-0.0310871135443449,0.01169652491807938,-0.0110238678753376,0.001745313405990601,-0.002829909324645996,0.008086860179901123,2,0.4332230389118195,-0.23136205971241,-0.3844441771507263,0.7816597819328308,-0.02859268523752689,-0.8551576733589172,-0.5175787806510925,14.73463439941406,-3.80255126953125,-39.983154296875,2,0
1563194082.812267,78,0,65424.31882262501,-0.8846800089507707,-0.05399237352408047,1.02430944629101,-0.05175682529807091,-0.0004165954887866974,-0.01469083596020937,0.001381456851959229,-0.002517938613891602,0.007013320922851562,2,0.4326566159725189,-0.2309597879648209,-0.3849508166313171,0.7818431258201599,-0.02804560959339142,-0.85435551404953,-0.5189316868782043,14.66813659667969,-3.912345886230469,-40.0040283203125,2,0
1563194082.830283,79,0,65424.35379562501,-0.8856009856605341,-0.05411706034729646,1.02348389631138,-0.008001767098903656,-0.01827691122889519,-0.002882969100028276,0.00330004096031189,-0.001955270767211914,0.0009388923645019531,2,0.4321987926959991,-0.2310584783554077,-0.3854155540466309,0.7818382978439331,-0.02814846113324165,-0.8539261817932129,-0.5196323394775391,14.66461944580078,-3.821868896484375,-40.02520751953125,2,0
1563194082.879702,80,0,65424.38873762501,-0.8859927156300607,-0.05454089081811207,1.024722304067731,0.05253810435533524,-0.01635580882430077,-0.002142364159226418,0.00665166974067688,-0.0002127885818481445,0.004722893238067627,2,0.4325628876686096,-0.2315326780080795,-0.3855435848236084,0.7814333438873291,-0.02831101603806019,-0.8545700311660767,-0.5185639262199402,14.69580841064453,-3.936199188232422,-40.19329833984375,2,0
1563194082.896148,81,0,65424.42371062501,-0.8865158250972955,-0.05498262419965519,1.026571892696347,0.04306969419121742,-0.01125474832952023,-0.00632383581250906,0.005435794591903687,-0.0009629130363464355,0.007388949394226074,2,0.4331501126289368,-0.2321525365114212,-0.385668933391571,0.7808621525764465,-0.02845317497849464,-0.8555291295051575,-0.5169723629951477,14.75381469726562,-4.006038665771484,-40.07012939453125,2,0
1563194082.928721,82,0,65424.458623625,-0.8879082019414133,-0.0543901979935193,1.026594569823578,-0.01151416264474392,-0.00601736456155777,-0.01909914426505566,0.004624992609024048,-0.002110779285430908,0.002594947814941406,2,0.4331117570400238,-0.2322269231081009,-0.3860820531845093,0.7806571125984192,-0.02814584597945213,-0.8555408716201782,-0.5169697403907776,14.716064453125,-3.969490051269531,-40.047119140625,2,0
1563194082.962431,83,0,65424.458623625,-0.8879082019414133,-0.0543901979935193,1.026594569823578,-0.01151416264474392,-0.00601736456155777,-0.01909914426505566,0.004624992609024048,-0.002110779285430908,0.002594947814941406,2,0.4331117570400238,-0.2322269231081009,-0.3860820531845093,0.7806571125984192,-0.02814584597945213,-0.8555408716201782,-0.5169697403907776,14.716064453125,-3.969490051269531,-40.047119140625,2,0
1563194082.995517,84,0,65424.49359662501,-0.8898649407704644,-0.05440266566873538,1.025524169167397,-0.04729995504021645,-0.05001772195100784,-0.019455187022686,0.008450150489807129,-0.004053831100463867,0.005385279655456543,2,0.4324581325054169,-0.2324612885713577,-0.3869499266147614,0.780519962310791,-0.02820206619799137,-0.8549861907958984,-0.5178834199905396,14.84164428710938,-4.134552001953125,-39.92364501953125,2,0
1563194083.027868,85,0,65424.528538625,-0.8912118814600495,-0.05523864559327672,1.023567923311283,-0.04988440871238708,-0.03605982661247253,-0.01293023768812418,0.002932757139205933,-0.003940403461456299,0.006038188934326172,2,0.4313647449016571,-0.232723206281662,-0.3878414630889893,0.7806044816970825,-0.02872728742659092,-0.853969931602478,-0.5195287466049194,14.72670745849609,-4.182083129882812,-40.07098388671875,2,0
1563194083.059827,86,0,65424.56351162501,-0.8926852516485901,-0.05480089892071088,1.021821127827925,-0.06214823946356773,-0.009191086515784264,-0.01085981260985136,0.007517248392105103,-0.007139146327972412,0.004563570022583008,2,0.4305863082408905,-0.2325519621372223,-0.3884876072406769,0.7807640433311462,-0.0285815317183733,-0.853059709072113,-0.5210300087928772,14.68976593017578,-4.108501434326172,-40.1024169921875,2,0
1563194083.111091,87,0,65424.59842391667,-0.8937725933486201,-0.05434953936314771,1.019494062017676,-0.05515073612332344,0.00136944092810154,-0.004862088710069656,0.001988261938095093,-0.003914833068847656,0.006449699401855469,2,0.4296256899833679,-0.2321852594614029,-0.389035552740097,0.7811293601989746,-0.02845411002635956,-0.8518431186676025,-0.5230235457420349,14.49839782714844,-3.603378295898438,-40.21087646484375,2,0
1563194083.126026,88,0,65424.63339691667,-0.8947912715149638,-0.05414373764897232,1.018751981548483,-0.01828573457896709,-0.007967471145093441,-0.01049957051873207,0.005042880773544312,-0.0001228451728820801,0.006750822067260742,2,0.4292533993721008,-0.2321880161762238,-0.3894595205783844,0.7811219692230225,-0.02838067524135113,-0.8514541983604431,-0.5236604809761047,14.44164276123047,-3.569633483886719,-40.22259521484375,2,0
1563194083.170633,89,0,65424.66833891667,-0.8965656623073762,-0.05326826585998824,1.01733694540783,-0.05265562236309052,-0.007882113568484783,-0.02021574415266514,0.006800144910812378,-0.003764748573303223,0.007107973098754883,2,0.4286574125289917,-0.2319675385951996,-0.3900990784168243,0.7811956405639648,-0.02798633649945259,-0.8507112264633179,-0.52488774061203,14.82480621337891,-3.686317443847656,-40.15478515625,2,0
1563194083.191896,90,0,65424.70331191667,-0.8975308710970706,-0.05379142637744992,1.015954467228231,-0.02039423398673534,-0.04095831513404846,-0.002528032287955284,0.002361863851547241,-0.005453109741210938,-0.000446021556854248,2,0.4278954863548279,-0.2321249544620514,-0.3907194137573242,0.7812565565109253,-0.02832413837313652,-0.8499837517738342,-0.5260469317436218,14.76191711425781,-3.515819549560547,-40.24603271484375,2,0
1563194083.230649,91,0,65424.73822491667,-0.8978197191698408,-0.0548458388073606,1.015869918080948,0.001394057180732489,-0.012270363047719,-0.0004102649400010705,0.001730173826217651,-0.0008437633514404297,0.0105055570602417,2,0.4276223480701447,-0.232583075761795,-0.391065776348114,0.7810965180397034,-0.02888273075222969,-0.849939227104187,-0.5260884761810303,14.51119232177734,-3.047100067138672,-40.15045166015625,2,0
1563194083.257685,92,0,65424.77319791667,-0.899001583957858,-0.05427505969655793,1.015202582050021,-0.02489998564124107,-0.00266699492931366,-0.01114339753985405,0.00898328423500061,-0.001271724700927734,0.003443360328674316,2,0.4273321330547333,-0.2324901968240738,-0.3914686143398285,0.7810811996459961,-0.02861320786178112,-0.8495874404907227,-0.5266711115837097,14.67478942871094,-3.209911346435547,-40.3321533203125,2,0
1563194083.292107,93,0,65424.80813991667,-0.8998509415216265,-0.05455109174562698,1.015105207727506,0.006161094177514315,-0.01717985980212688,-0.004785866476595402,0.01143720746040344,-0.006343245506286621,0.002923011779785156,2,0.4271406829357147,-0.2327614724636078,-0.3918684720993042,0.7809046506881714,-0.02876309864223003,-0.8495360612869263,-0.5267458558082581,14.66703033447266,-3.222385406494141,-40.10528564453125,2,0
1563194083.323731,94,0,65424.84311391667,-0.9005977283817893,-0.05374651946156652,1.015284850278235,0.01374579779803753,0.03419460728764534,-0.005427127704024315,0.005649447441101074,-0.002006471157073975,0.01194876432418823,2,0.4272826313972473,-0.232639953494072,-0.3919711112976074,0.7808116674423218,-0.028331084176898,-0.8496308326721191,-0.5266163945198059,14.46696472167969,-3.442253112792969,-40.0947265625,2,0
1563194083.357829,95,0,65424.87802591667,-0.9014288422850232,-0.05256480836608782,1.016112760780907,0.02122501842677593,0.01211939752101898,-0.0121076675131917,0.002258986234664917,-0.004667818546295166,0.01211869716644287,2,0.4277454316616058,-0.2325089871883392,-0.3919639885425568,0.7806007862091064,-0.02767178602516651,-0.850067138671875,-0.5259468555450439,14.90422058105469,-3.457332611083984,-40.14886474609375,2,0
1563194083.391619,96,0,65424.91299891667,-0.9031427089775742,-0.05113302431086605,1.015822542657473,-0.02650841511785984,0.005725415423512459,-0.01675727963447571,0.004051715135574341,-0.0008230209350585938,0.01776009798049927,2,0.4277121424674988,-0.2322630435228348,-0.392354428768158,0.7804961800575256,-0.02693133056163788,-0.8499142527580261,-0.5262324213981628,14.93798065185547,-3.440750122070312,-40.063720703125,2,0
1563194083.423746,97,0,65424.94794091667,-0.9049544438237682,-0.04922804783844383,1.014589363690467,-0.03733232617378235,0.02655664086341858,-0.01848048903048038,0.006930947303771973,-0.00165635347366333,0.005413532257080078,2,0.427388072013855,-0.2316783666610718,-0.3927730023860931,0.7806369066238403,-0.02598037384450436,-0.8492638468742371,-0.52732914686203,14.87275695800781,-3.174224853515625,-40.26776123046875,2,0
1563194083.475915,98,0,65424.98291491667,-0.9062397076030904,-0.04824234844091121,1.014634048232123,0.01500295475125313,-0.004313094541430473,-0.01208828762173653,0.006607800722122192,-0.003524899482727051,-0.003403306007385254,2,0.4274505376815796,-0.2315766364336014,-0.393059641122818,0.7804886102676392,-0.02545874379575253,-0.8492873907089233,-0.5273165702819824,14.72300720214844,-3.277660369873047,-40.31988525390625,2,0
1563194083.489379,99,0,65425.01782691667,-0.9070723297884842,-0.04763296992574884,1.014437300342284,-0.008872377686202526,0.009678518399596214,-0.008296078070998192,0.003517389297485352,-0.001904428005218506,0.00236356258392334,2,0.4273961782455444,-0.2314801961183548,-0.3932734131813049,0.7804392576217651,-0.02514535747468472,-0.8491834998130798,-0.5274988412857056,14.84172058105469,-3.286922454833984,-40.10955810546875,2,0
1563194083.530776,100,0,65425.01782691667,-0.9070723297884842,-0.04763296992574884,1.014437300342284,-0.008872377686202526,0.009678518399596214,-0.008296078070998192,0.003517389297485352,-0.001904428005218506,0.00236356258392334,2,0.4273961782455444,-0.2314801961183548,-0.3932734131813049,0.7804392576217651,-0.02514535747468472,-0.8491834998130798,-0.5274988412857056,14.84172058105469,-3.286922454833984,-40.10955810546875,2,0
1563194083.555648,101,0,65425.05279991667,-0.9079627746657074,-0.04704002041273166,1.014603125119503,0.01026494987308979,0.01042067818343639,-0.007156031206250191,0.001656889915466309,-0.006333589553833008,0.006830692291259766,2,0.4274752736091614,-0.2314700186252594,-0.3934780061244965,0.7802958488464355,-0.02482595294713974,-0.8492710590362549,-0.5273730158805847,14.82061004638672,-3.298320770263672,-40.145751953125,2,0
1563194083.598136,102,0,65425.08774191667,-0.9086113409532524,-0.046223981827472,1.01507406279087,0.01288733817636967,0.01888133212924004,-0.0007759217405691743,0.01051601767539978,-0.002804577350616455,0.00939631462097168,2,0.4277468323707581,-0.2313781827688217,-0.3935106694698334,0.7801578044891357,-0.02437710575759411,-0.8495196104049683,-0.5269935727119446,14.98213195800781,-3.200965881347656,-40.29132080078125,2,0
1563194083.621194,103,0,65425.12271591667,-0.9086837239691937,-0.04563772177277167,1.015880141159452,0.02246256731450558,0.02319351211190224,0.003608628176152706,0.004621714353561401,-0.004347920417785645,0.008421242237091064,2,0.4281721413135529,-0.231315478682518,-0.3933347463607788,0.7800318002700806,-0.02403689734637737,-0.8499445915222168,-0.5263235569000244,15.14987945556641,-3.302326202392578,-40.1644287109375,2,0
1563194083.653295,104,0,65425.15765791667,-0.9094044797703983,-0.04469033325372163,1.016042288188654,-0.00829810556024313,0.02249515987932682,-0.007921300828456879,0.006726294755935669,-0.002675533294677734,0.006719112396240234,2,0.4283391833305359,-0.2311306595802307,-0.3933971226215363,0.7799633741378784,-0.02353209443390369,-0.8500300049781799,-0.5262083411216736,15.05158233642578,-3.130577087402344,-40.1339111328125,2,0
1563194083.687158,105,0,65425.19263091667,-0.910042952063528,-0.04382340086431041,1.016050107045117,0.008733728900551796,0.01162688247859478,-0.00262142950668931,0.001432895660400391,-0.003648042678833008,0.007480382919311523,2,0.4284390509128571,-0.2309307903051376,-0.3934596478939056,0.7799361944198608,-0.02307560667395592,-0.8500341176986694,-0.5262218713760376,14.73089599609375,-3.428070068359375,-40.18896484375,2,0
1563194083.71955,106,0,65425.22754291667,-0.9107605004957376,-0.04352455201039677,1.01637652550713,0.003306109923869371,0.002445042133331299,-0.004512045066803694,0.0001344680786132812,-0.00260627269744873,0.008430719375610352,2,0.4285437762737274,-0.2310290783643723,-0.3936432898044586,0.7797569036483765,-0.02290627360343933,-0.8502060174942017,-0.5259515643119812,14.73906707763672,-3.168632507324219,-40.27484130859375,2,0
1563194083.774616,107,0,65425.26251691667,-0.9113617125221727,-0.0432689535755262,1.01616272682439,-0.01117712818086147,-0.001507464796304703,-0.00130055972840637,0.005501091480255127,-0.005129575729370117,0.002102553844451904,2,0.4284403026103973,-0.2310181707143784,-0.3938439786434174,0.7797156572341919,-0.02277970314025879,-0.8500934839248657,-0.5261390209197998,14.82251739501953,-3.205436706542969,-40.1285400390625,2,0
1563194083.785045,108,0,65425.29745891667,-0.9113224570489604,-0.04318786209788069,1.016274232463961,0.0136204157024622,0.02183266170322895,0.01547005958855152,0.005881607532501221,-0.004460453987121582,0.0004989504814147949,2,0.4285048246383667,-0.2309991270303726,-0.3938003480434418,0.7797077894210815,-0.0227329395711422,-0.8501521944999695,-0.5260460376739502,14.79817199707031,-3.307907104492188,-40.23529052734375,2,0
1563194083.826608,109,0,65425.33243191667,-0.9108961364520288,-0.0426530007445242,1.017242940127628,0.02747400477528572,0.05197947099804878,0.007342934142798185,0.008708447217941284,-0.002532005310058594,0.008965671062469482,2,0.4290413856506348,-0.2308807373046875,-0.3934239149093628,0.77963787317276,-0.02241645008325577,-0.8506618142127991,-0.5252351760864258,14.87865447998047,-3.254299163818359,-40.14044189453125,2,0
1563194083.850965,110,0,65425.36734391667,-0.9107999162919275,-0.04207565286235345,1.017400923215293,-0.002399129793047905,0.003873413428664207,0.00881490483880043,0.008796364068984985,-0.002098023891448975,0.009088397026062012,2,0.4292283356189728,-0.2306646257638931,-0.3932469189167023,0.7796882390975952,-0.02210755087435246,-0.850744903087616,-0.5251137614250183,14.78466796875,-3.156219482421875,-39.98236083984375,2,0
1563194083.891615,111,0,65425.40231791667,-0.9107266879764441,-0.04295030795787444,1.017311631960009,-0.01492935232818127,-0.01030990108847618,0.006670301780104637,0.003002703189849854,-0.002160310745239258,0.01489740610122681,2,0.4290295541286469,-0.2309731394052505,-0.3934148550033569,0.7796216011047363,-0.02257009781897068,-0.850697934627533,-0.5251700878143311,15.01132202148438,-3.285324096679688,-40.236572265625,2,0
1563194083.916858,112,0,65425.43725991667,-0.910408377043913,-0.04303159685247214,1.016582566688231,-0.0148842241615057,0.01960423029959202,0.0158093273639679,0.003926515579223633,-0.00530552864074707,0.006237506866455078,2,0.4287627339363098,-0.2308000475168228,-0.3933800756931305,0.7798371315002441,-0.02263946086168289,-0.8503144979476929,-0.5257877111434937,14.95603942871094,-3.378646850585938,-40.24493408203125,2,0
1563194083.951876,113,0,65425.47223291667,-0.9098253246854789,-0.04237256946598194,1.016554928367309,0.009318096563220024,0.05481187254190445,0.01035673078149557,0.006724417209625244,-0.004083991050720215,0.002537369728088379,2,0.4289486110210419,-0.2304128259420395,-0.3930141031742096,0.7800339460372925,-0.02229394391179085,-0.8502999544143677,-0.5258260369300842,15.02944946289062,-3.17340087890625,-40.2054443359375,2,0
1563194083.982608,114,0,65425.50714491667,-0.9100299471557569,-0.0411705122119654,1.017101504271649,0.02139749564230442,0.02109143137931824,-0.001846220577135682,0.01136815547943115,-0.00108039379119873,-0.001028656959533691,2,0.4293768107891083,-0.2300903052091599,-0.3927820026874542,0.780010461807251,-0.02164272405207157,-0.8505874872207642,-0.5253880023956299,14.98989105224609,-3.116565704345703,-40.08026123046875,2,0
1563194084.016647,115,0,65425.54211891667,-0.9107346033401599,-0.04069294084342968,1.018067166370704,0.02082063071429729,0.006630366668105125,-0.009321263059973717,0.008718788623809814,-0.001122355461120605,0.008643627166748047,2,0.429770290851593,-0.2302364557981491,-0.3928585648536682,0.7797120213508606,-0.02135838568210602,-0.8510948419570923,-0.5245773196220398,14.93514251708984,-3.097557067871094,-39.98345947265625,2,0
1563194084.048579,116,0,65425.57706091667,-0.9111231072715595,-0.0401927237438008,1.018362214359822,0.01461902447044849,0.02053514495491982,0.005142075940966606,0.005135208368301392,-0.004232943058013916,0.01102793216705322,2,0.4299401342868805,-0.2301803082227707,-0.392873227596283,0.7796275615692139,-0.02108588814735413,-0.8512496948242188,-0.5243369936943054,15.14081573486328,-3.436912536621094,-40.11126708984375,2,0
1563194084.082353,117,0,65425.612052,-0.9107814940395649,-0.04063846967587505,1.018929296325878,0.008837763220071793,-0.01072189211845398,0.01366962213069201,0.01070511341094971,-0.002989351749420166,0.006919622421264648,2,0.4301154315471649,-0.2303870022296906,-0.3927796185016632,0.7795169353485107,-0.02129998989403248,-0.8515471816062927,-0.5238450765609741,14.95649719238281,-3.274566650390625,-39.875,2,0
1563194084.131822,118,0,65425.612052,-0.9107814940395649,-0.04063846967587505,1.018929296325878,0.008837763220071793,-0.01072189211845398,0.01366962213069201,0.01070511341094971,-0.002989351749420166,0.006919622421264648,2,0.4301154315471649,-0.2303870022296906,-0.3927796185016632,0.7795169353485107,-0.02129998989403248,-0.8515471816062927,-0.5238450765609741,14.95649719238281,-3.274566650390625,-39.875,2,0
1563194084.148469,119,0,65425.64696500001,-0.9106332610704063,-0.04149509024090451,1.01915698035779,0.01215886883437634,-0.003772628493607044,-0.0002771473373286426,-0.003182351589202881,-0.0002150535583496094,0.01198720932006836,2,0.4300539791584015,-0.2307315915822983,-0.3928834497928619,0.779396653175354,-0.02174067869782448,-0.8516665101051331,-0.5236330032348633,14.91537475585938,-3.487754821777344,-39.8878173828125,2,0
1563194084.189089,120,0,65425.681938,-0.9103753637800682,-0.04192805905616048,1.019529329208878,0.01279495283961296,-0.007890152744948864,0.007662862539291382,0.00580480694770813,0.0003767609596252441,0.00233769416809082,2,0.4301454722881317,-0.2309146225452423,-0.3928391933441162,0.7793142199516296,-0.02195409685373306,-0.8518615961074829,-0.5233066082000732,15.10704040527344,-3.410106658935547,-40.0623779296875,2,0
1563194084.214211,121,0,65425.71688000001,-0.910774359162269,-0.04250111515791789,1.019986551042788,0.00797712616622448,-0.02013344317674637,-0.003601738950237632,0.01171857118606567,-0.003305494785308838,0.004026532173156738,2,0.4301669597625732,-0.2313092648983002,-0.3930726051330566,0.7790676355361938,-0.02223742939531803,-0.8521009683609009,-0.5229048132896423,15.02860260009766,-3.506336212158203,-39.9278564453125,2,0
1563194084.24624,122,0,65425.751853,-0.9106785752714841,-0.04354874722278433,1.020713606071382,0.03361356258392334,-0.01364230364561081,0.006137342657893896,0.002351582050323486,-0.002528250217437744,0.009258449077606201,2,0.4302586615085602,-0.2318327724933624,-0.3931887447834015,0.7788026928901672,-0.02275824919342995,-0.8524813055992126,-0.5222620964050293,15.04060363769531,-3.198375701904297,-40.0533447265625,2,0
1563194084.280661,123,0,65425.78679600001,-0.9109244862594271,-0.04352340963825936,1.021408910876801,0.003504516091197729,0.004754716530442238,-0.002200361108407378,0.007271647453308105,-0.0004561543464660645,0.009826540946960449,2,0.430509090423584,-0.2320058643817902,-0.3932102620601654,0.7786018848419189,-0.02271922118961811,-0.8528445363044739,-0.521670401096344,14.89104461669922,-3.284626007080078,-39.896484375,2,0
1563194084.312222,124,0,65425.821769,-0.911792058530685,-0.04284190440558434,1.021015423921157,-0.007801280356943607,0.01347451098263264,-0.008540014736354351,0.005099564790725708,-0.001867055892944336,0.007201671600341797,2,0.4303874969482422,-0.2318536192178726,-0.393440306186676,0.7785982489585876,-0.02237806655466557,-0.8526390194892883,-0.5220209956169128,14.87515258789062,-3.462211608886719,-39.96136474609375,2,0
1563194084.345949,125,0,65425.856681,-0.9129172958917097,-0.04105621421305869,1.020619691466824,0.00250950874760747,0.02149424701929092,-0.01378752756863832,0.01316887140274048,-0.004225194454193115,0.0004060268402099609,2,0.4304526746273041,-0.2313263714313507,-0.3935334086418152,0.7786719799041748,-0.02145970985293388,-0.8524321913719177,-0.5223972201347351,14.9954833984375,-3.309761047363281,-40.1063232421875,2,0
1563194084.377957,126,0,65425.89165400001,-0.9138735083615249,-0.04060476878217197,1.021131895144758,0.01245554536581039,-0.008038213476538658,-0.01072073355317116,0.003790616989135742,-0.003957509994506836,0.001017093658447266,2,0.4306325316429138,-0.231452688574791,-0.3937573730945587,0.7784217596054077,-0.02120614983141422,-0.852699875831604,-0.5219705700874329,15.17406463623047,-3.640594482421875,-39.97998046875,2,0
1563194084.418452,127,0,65425.92659700001,-0.9148560287751966,-0.04026047121113218,1.021213265401296,-0.001402675174176693,0.001089641824364662,-0.004548755474388599,0.002799421548843384,-0.001443028450012207,0.01195651292800903,2,0.4306186437606812,-0.2315455675125122,-0.3940574824810028,0.7782499194145203,-0.02102364040911198,-0.8527423739433289,-0.5219084620475769,15.10482025146484,-3.53704833984375,-40.1395263671875,2,0
1563194084.444065,128,0,65425.96157000001,-0.9152996550547481,-0.03994913704670235,1.020937041130545,-0.007830671966075897,0.006786283105611801,0.000100160832516849,0.003394097089767456,-0.004379630088806152,0.01264083385467529,2,0.4305199682712555,-0.2314679324626923,-0.3941907286643982,0.7782601118087769,-0.02087055891752243,-0.8525980710983276,-0.5221502780914307,15.25211334228516,-3.441730499267578,-40.07177734375,2,0
1563194084.479216,129,0,65425.996482,-0.9153586483414969,-0.04011618503773052,1.020285508067083,-0.02272418327629566,0.002011647447943687,0.004298142157495022,0.006372153759002686,-0.003102898597717285,0.01046091318130493,2,0.430223822593689,-0.2314228564500809,-0.3943147957324982,0.7783744931221008,-0.02098006010055542,-0.8522574305534363,-0.5227018594741821,15.02408599853516,-3.458293914794922,-39.95343017578125,2,0
1563194084.509807,130,0,65426.031455,-0.9162633921170268,-0.03952714756956838,1.020122989421359,0.002962126862257719,0.005412129685282707,-0.01439153589308262,0.009899795055389404,-0.0008990764617919922,0.004416465759277344,2,0.430171400308609,-0.2313576638698578,-0.3945564925670624,0.7783002853393555,-0.02067763358354568,-0.8521723747253418,-0.5228524208068848,15.18895721435547,-3.525215148925781,-39.9840087890625,2,0
1563194084.543899,131,0,65426.066398,-0.9176387558413557,-0.03835755500666657,1.020027969531147,-0.008208358660340309,0.009132565930485725,-0.01349757611751556,0.01136669516563416,-0.001650571823120117,0.003162980079650879,2,0.4302058219909668,-0.2311804741621017,-0.3948496580123901,0.7781851887702942,-0.02006919868290424,-0.8521226644515991,-0.5229570865631104,15.15200042724609,-3.429622650146484,-40.2069091796875,2,0
1563194084.575764,132,0,65426.101371,-0.9183514188968936,-0.03820581804898207,1.0200122601924,0.01087348349392414,-0.00894822645932436,7.897848263382912e-05,0.003704249858856201,-0.004359662532806396,0.004003405570983887,2,0.4301472008228302,-0.2312717139720917,-0.3950958549976349,0.77806556224823,-0.01999036036431789,-0.8521144390106201,-0.5229735374450684,15.46498870849609,-3.673164367675781,-40.21600341796875,2,0
1563194084.609777,133,0,65426.13628300001,-0.9184462887517003,-0.03792739410926836,1.020549088646229,0.01947229728102684,0.01778929121792316,0.009233388118445873,0.005418181419372559,-0.002721071243286133,0.006649494171142578,2,0.4304022789001465,-0.2312854081392288,-0.3950187861919403,0.7779595255851746,-0.01982740126550198,-0.8523952960968018,-0.5225218534469604,15.11968231201172,-3.440841674804688,-40.0582275390625,2,0
1563194084.642226,134,0,65426.171257,-0.917798101209564,-0.03881677826199793,1.022040848825166,0.04428131133317947,-0.01763620786368847,0.008565835654735565,0.0002181828022003174,-0.003025531768798828,0.004185914993286133,2,0.4308880269527435,-0.2317736893892288,-0.3948078751564026,0.777652382850647,-0.02024275064468384,-0.8531743288040161,-0.5212329030036926,15.19964599609375,-3.602836608886719,-40.0845947265625,2,0
1563194084.675597,135,0,65426.20619900001,-0.918811197045597,-0.0377702700244597,1.021569989606119,-0.04002240672707558,0.03703037649393082,-0.01670338585972786,0.00853806734085083,-0.001287698745727539,0.01251220703125,2,0.4307923018932343,-0.2314960062503815,-0.3950238525867462,0.7776784300804138,-0.01971243135631084,-0.852928638458252,-0.5216552019119263,15.10699462890625,-3.713188171386719,-40.119384765625,2,0
1563194084.707586,136,0,65426.20619900001,-0.918811197045597,-0.0377702700244597,1.021569989606119,-0.04002240672707558,0.03703037649393082,-0.01670338585972786,0.00853806734085083,-0.001287698745727539,0.01251220703125,2,0.4307923018932343,-0.2314960062503815,-0.3950238525867462,0.7776784300804138,-0.01971243135631084,-0.852928638458252,-0.5216552019119263,15.10699462890625,-3.713188171386719,-40.119384765625,2,0
1563194084.74167,137,0,65426.241172,-0.9194491222331083,-0.0368763068642293,1.021462048343177,0.009802650660276413,0.005601175129413605,0.004348169080913067,0.005923748016357422,-0.003281712532043457,0.002672910690307617,2,0.4308526515960693,-0.2312653213739395,-0.3950902223587036,0.777679979801178,-0.01924948021769524,-0.8528723120689392,-0.5217646956443787,15.3389892578125,-3.572460174560547,-39.92791748046875,2,0
1563194084.79681,138,0,65426.276084,-0.9202692623830275,-0.03624947027244672,1.020841564656283,-0.03401552885770798,0.0136436615139246,-0.007997775450348854,0.004898786544799805,-0.00285792350769043,0.01604592800140381,2,0.4306380152702332,-0.231080636382103,-0.3953370153903961,0.777728259563446,-0.01894158683717251,-0.8525481820106506,-0.5223052501678467,14.97936248779297,-3.525913238525391,-40.00537109375,2,0
1563194084.807714,139,0,65426.31105800001,-0.9216527651387663,-0.03479986312538865,1.020142514942551,-0.005403059534728527,0.01123403385281563,-0.01764827035367489,0.00521540641784668,-0.002521276473999023,0.005925834178924561,2,0.4304904043674469,-0.2306819409132004,-0.3956339359283447,0.777777373790741,-0.01820516213774681,-0.8521826267242432,-0.5229277014732361,15.32472229003906,-3.742988586425781,-40.1513671875,2,0
1563194084.858905,140,0,65426.34600000001,-0.9232890684561056,-0.03360147072880194,1.019770481862747,-0.01778837479650974,-0.002611437812447548,-0.02121800184249878,0.005118340253829956,-0.001220583915710449,0.01055186986923218,2,0.430392861366272,-0.2304971963167191,-0.3960502147674561,0.7776743173599243,-0.01758912950754166,-0.851987898349762,-0.523266077041626,15.13636779785156,-3.584102630615234,-40.0540771484375,2,0
1563194084.873382,141,0,65426.38097300001,-0.9252337407734162,-0.03161491067693504,1.019156750860876,-0.0127973947674036,0.03329489380121231,-0.02464603818953037,0.004187136888504028,-0.002976357936859131,0.002166450023651123,2,0.4303217530250549,-0.2300260215997696,-0.3964417576789856,0.7776536345481873,-0.01656612008810043,-0.8516663908958435,-0.5238224267959595,15.45062255859375,-3.564350128173828,-40.17333984375,2,0
1563194084.912025,142,0,65426.415885,-0.9269504812798408,-0.02847757111362184,1.019223525388496,0.002964763436466455,0.07495079934597015,-0.01727673970162868,0.007211625576019287,-0.005291104316711426,0.006873905658721924,2,0.4307727217674255,-0.2291885018348694,-0.3964270055294037,0.7776587605476379,-0.01492101233452559,-0.8517013788223267,-0.5238149762153625,15.41441345214844,-3.360668182373047,-40.02716064453125,2,0
1563194084.939288,143,0,65426.450859,-0.9289559920465925,-0.02295951179329122,1.018511558038169,-0.03777375444769859,0.144720733165741,-0.02938654460012913,0.002336710691452026,-0.001193583011627197,0.01971536874771118,2,0.4313582479953766,-0.2273376286029816,-0.3960918188095093,0.7780480980873108,-0.0120442733168602,-0.8513280749320984,-0.5244953036308289,15.61692047119141,-3.466304779052734,-40.21893310546875,2,0
1563194084.978152,144,0,65426.485801,-0.932174219645506,-0.01099657714022165,1.016347914408596,-0.0754765123128891,0.340966671705246,-0.04763618484139442,0.005940467119216919,-0.006206274032592773,0.03187042474746704,2,0.4325154721736908,-0.2229552417993546,-0.3949903249740601,0.7792329788208008,-0.005789300426840782,-0.8501909375190735,-0.5264426469802856,15.78404998779297,-3.458934783935547,-40.23065185546875,2,0
1563194085.005225,145,0,65426.520774,-0.9351559930125589,0.005273081962555392,1.01420927296794,-0.03715590387582779,0.413215309381485,-0.03312162682414055,0.004996985197067261,-0.0009861588478088379,0.008213996887207031,2,0.4345573484897614,-0.2168359905481339,-0.3928593397140503,0.7808992266654968,0.002785711316391826,-0.8490630984306335,-0.5282841324806213,16.556640625,-3.220664978027344,-40.15472412109375,2,0
1563194085.037827,146,0,65426.555717,-0.9383229753500656,0.02072677084082555,1.013394966137336,-0.04312947019934654,0.3509006500244141,-0.04743583127856255,0.002116173505783081,0.001253783702850342,0.006799817085266113,2,0.4369290173053741,-0.2113255709409714,-0.3908212184906006,0.7821082472801208,0.01096331793814898,-0.8486326336860657,-0.528869092464447,17.25769805908203,-3.012790679931641,-39.90875244140625,2,0
1563194085.071917,147,0,65426.59069,-0.9413260087884671,0.03293288976363747,1.010778121444012,-0.08441456407308578,0.2674415409564972,-0.04946720600128174,0.0001373887062072754,-0.0002399086952209473,0.01964706182479858,2,0.4379803240299225,-0.2066796123981476,-0.3896275460720062,0.7833563089370728,0.01749084144830704,-0.847245454788208,-0.5309135317802429,17.65614318847656,-3.086063385009766,-39.69244384765625,2,0
1563194085.103122,148,0,65426.62558904167,-0.9448465329997298,0.04879814370588299,1.007473501518341,-0.05683629587292671,0.4265476167201996,-0.04470406100153923,-0.002817451953887939,-0.002457261085510254,-0.002898097038269043,2,0.439424991607666,-0.2005597949028015,-0.3879169225692749,0.7849853038787842,0.02604779787361622,-0.8454853892326355,-0.533362865447998,18.29022979736328,-2.755039215087891,-39.565673828125,2,0
1563194085.159184,149,0,65426.66056204167,-0.9459574738238899,0.06120579273020002,1.010239704137527,0.1412831097841263,0.2606272101402283,-0.009403431788086891,0.02508977055549622,-0.008231639862060547,-0.03407096862792969,2,0.4427824020385742,-0.1965009719133377,-0.3852826654911041,0.7854224443435669,0.03252021968364716,-0.8469592928886414,-0.5306622385978699,18.78483581542969,-2.750724792480469,-39.3250732421875,2,0
1563194085.168976,150,0,65426.69550504167,-0.9479774268416534,0.06912442456529255,1.015564139991024,0.1370930671691895,0.1868488788604736,-0.03531431034207344,0.001929819583892822,-0.01711666584014893,-0.01664894819259644,2,0.4461586177349091,-0.1949400305747986,-0.3836597204208374,0.7846949100494385,0.03640928119421005,-0.8497780561447144,-0.5258817672729492,19.19203186035156,-3.158958435058594,-39.2042236328125,2,0
1563194085.216854,151,0,65426.73047804167,-0.9511473968959563,0.07503324819604075,1.021396747630553,0.1866677552461624,0.08223792910575867,-0.03596781194210052,-4.103779792785645e-05,0.01147043704986572,-0.008242964744567871,2,0.4492219984531403,-0.1945419758558273,-0.3828486800193787,0.7834410667419434,0.03914375230669975,-0.8528382182121277,-0.5207060575485229,19.51555633544922,-3.442176818847656,-39.1375732421875,2,0
1563194085.234787,152,0,65426.76539004167,-0.9550831312793224,0.08094050085089936,1.027979473961359,0.1749567240476608,0.08426749706268311,-0.03595717623829842,0.01827427744865417,0.001002907752990723,0.01519298553466797,2,0.4524874091148376,-0.1944883763790131,-0.3822182416915894,0.7818814516067505,0.04176417738199234,-0.8562570214271545,-0.5148588418960571,19.81686401367188,-3.468341827392578,-38.91259765625,2,0
1563194085.268934,153,0,65426.76539004167,-0.9550831312793224,0.08094050085089936,1.027979473961359,0.1749567240476608,0.08426749706268311,-0.03595717623829842,0.01827427744865417,0.001002907752990723,0.01519298553466797,2,0.4524874091148376,-0.1944883763790131,-0.3822182416915894,0.7818814516067505,0.04176417738199234,-0.8562570214271545,-0.5148588418960571,19.81686401367188,-3.468341827392578,-38.91259765625,2,0
1563194085.300829,154,0,65426.80036304167,-0.9623304592018649,0.08674717044788872,1.036718285314025,0.3563645780086517,0.0179328341037035,-0.09160400927066803,0.01192286610603333,-0.004282712936401367,0.04035234451293945,2,0.456217885017395,-0.1956998556852341,-0.382592499256134,0.7792238593101501,0.04410308972001076,-0.8607383370399475,-0.5071336030960083,19.59809875488281,-3.886592864990234,-38.64361572265625,2,0
1563194085.339233,155,0,65426.83530604167,-0.9623000724735644,0.08316588270764338,1.048446417189907,0.3783702254295349,-0.1846855580806732,0.06167341023683548,-0.00980338454246521,-0.009100258350372314,-0.02083933353424072,2,0.4599828124046326,-0.1995469480752945,-0.3818592429161072,0.7763893008232117,0.04144514724612236,-0.8666491508483887,-0.4971936643123627,19.5400390625,-4.241668701171875,-38.53594970703125,2,0
1563194085.366736,156,0,65426.87027904167,-0.9603810334296492,0.0700051758883958,1.063415655468585,0.4126166701316833,-0.3451102375984192,0.06195740029215813,-0.006680577993392944,0.00737839937210083,0.002207279205322266,2,0.4633260369300842,-0.2073143571615219,-0.3821925222873688,0.7721908092498779,0.03398701176047325,-0.8740202188491821,-0.4846994876861572,19.15433502197266,-4.992279052734375,-38.129638671875,2,0
1563194085.400616,157,0,65426.90519104167,-0.9575435384190856,0.05578327029663611,1.076992673224992,0.3779282569885254,-0.3261660933494568,0.072849340736866,0.01392441987991333,0.002570867538452148,0.01650887727737427,2,0.4660345315933228,-0.2149212658405304,-0.3826450407505035,0.7682470083236694,0.02642636559903622,-0.8805363774299622,-0.4732413291931152,18.55460357666016,-5.712459564208984,-38.0777587890625,2,0
1563194085.452724,158,0,65426.94016404167,-0.9524822718268936,0.04008289659523337,1.089785672466848,0.3447264730930328,-0.3323661386966705,0.08959317207336426,-0.003048121929168701,-0.0006705522537231445,0.01547682285308838,2,0.4684136211872101,-0.2223438918590546,-0.382741391658783,0.7646312117576599,0.01854040287435055,-0.8865277767181396,-0.4623037576675415,17.93454742431641,-6.780418395996094,-37.8355712890625,2,0
1563194085.466497,159,0,65426.97510704167,-0.946466234456341,0.02096420680457712,1.099829834287017,0.2524040639400482,-0.4197011291980743,0.08313232660293579,0.003307998180389404,-0.0006775259971618652,0.004809141159057617,2,0.4692264497280121,-0.2302227467298508,-0.3836750388145447,0.7613261342048645,0.009511765092611313,-0.8911301493644714,-0.4536480605602264,17.35321807861328,-6.671421051025391,-37.8084716796875,2,0
1563194085.506702,160,0,65427.01008004167,-0.940822200876379,0.0009925539709144248,1.109434451288249,0.2920225262641907,-0.402694970369339,0.07714229822158813,0.01811298727989197,0.003317832946777344,0.01175767183303833,2,0.4696846902370453,-0.2383534908294678,-0.3850542008876801,0.757837176322937,0.0004418532189447433,-0.8954470753669739,-0.4451678097248077,16.8472900390625,-7.087730407714844,-37.84674072265625,2,0
1563194085.53252,161,0,65427.04499204167,-0.9332963287022814,-0.01712083527823408,1.118866106182612,0.2516545057296753,-0.2904311418533325,0.1129533126950264,0.02074965834617615,0.001921534538269043,0.005290627479553223,2,0.4706818759441376,-0.2452329397201538,-0.3853548765182495,0.7548648715019226,-0.007476350758224726,-0.8996058702468872,-0.436638742685318,16.17802429199219,-7.625358581542969,-37.61846923828125,2,0
1563194085.567583,162,0,65427.07996504167,-0.9253350091660235,-0.03419721367311886,1.125895616655644,0.1555541753768921,-0.2467846274375916,0.05223022773861885,-0.01731732487678528,-0.01198416948318481,0.01422721147537231,2,0.4710493385791779,-0.2511059939861298,-0.3855708241462708,0.7525911331176758,-0.01471452601253986,-0.9026533961296082,-0.430116593837738,15.43043518066406,-8.291351318359375,-37.68634033203125,2,0
1563194085.59833,163,0,65427.11490804167,-0.9248734605522619,-0.03881049591170743,1.125645826564408,-0.05331593751907349,-0.04727612063288689,0.002251951023936272,0.03417450189590454,-0.001975297927856445,0.02687716484069824,2,0.4701219499111176,-0.2526867985725403,-0.3865106701850891,0.7521597146987915,-0.01670736074447632,-0.9025458693504333,-0.4302694797515869,15.33940887451172,-7.996917724609375,-37.515869140625,2,0
1563194085.630272,164,0,65427.14988104167,-0.9238232681411265,-0.04154322931609647,1.125262900212922,0.02693026512861252,-0.06667745113372803,0.02175094373524189,0.002939403057098389,-0.005100250244140625,0.003829002380371094,2,0.4695806801319122,-0.2533974349498749,-0.3868003487586975,0.7521098256111145,-0.0178974587470293,-0.9023809432983398,-0.4305674433708191,15.18959045410156,-8.054389953613281,-37.693603515625,2,0
1563194085.664304,165,0,65427.18479304167,-0.9235385736523118,-0.04428384484069784,1.126289062223075,0.0008566058240830898,-0.06467287242412567,-0.01440052594989538,0.001804500818252563,-0.001637279987335205,0.005798220634460449,2,0.4694774746894836,-0.2545488476753235,-0.3872230648994446,0.7515677809715271,-0.01903641223907471,-0.9028226733207703,-0.429591566324234,15.16828918457031,-8.037052154541016,-37.94451904296875,2,0
1563194085.696416,166,0,65427.21976604167,-0.926464182317517,-0.04297618201050538,1.125078176229371,-0.02761941403150558,-0.00972344633191824,-0.02648836746811867,0.01108598709106445,-0.005698442459106445,0.004808545112609863,2,0.4688973426818848,-0.2545217275619507,-0.3881497383117676,0.7514610886573792,-0.01852158643305302,-0.9023013114929199,-0.4307079315185547,15.04167175292969,-7.950901031494141,-37.845703125,2,0
1563194085.731851,167,0,65427.25470904167,-0.9283872903272911,-0.04143242506244491,1.124761734452178,-0.003030689898878336,-0.003418397158384323,-0.02177443169057369,0.006252080202102661,-0.004858314990997314,0.003595948219299316,2,0.4688319563865662,-0.2543342709541321,-0.3885455429553986,0.7513608336448669,-0.01786848530173302,-0.9021648168563843,-0.4310213625431061,15.08591461181641,-8.039474487304688,-37.880615234375,2,0
1563194085.762135,168,0,65427.28968204167,-0.9308950104848194,-0.04071442831038232,1.124344388575843,-0.01291321776807308,-0.05758874118328094,-0.04224178567528725,-0.001961290836334229,-0.00104057788848877,0.002443671226501465,2,0.4684937298297882,-0.2545751333236694,-0.3893658220767975,0.7510655522346497,-0.01757433451712132,-0.901984691619873,-0.4314102530479431,14.95056915283203,-7.810741424560547,-37.9039306640625,2,0
1563194085.807085,169,0,65427.32462504167,-0.9376580030270489,-0.03439404386424019,1.124928042234763,-0.007122878450900316,0.04525656625628471,-0.09890801459550858,0.007608115673065186,0.00612342357635498,0.03128623962402344,2,0.4690878093242645,-0.2538964748382568,-0.3903570771217346,0.7504096031188965,-0.01482921373099089,-0.9022365808486938,-0.4309864044189453,14.84451293945312,-7.786979675292969,-37.74420166015625,2,0
1563194085.828346,170,0,65427.32462504167,-0.9376580030270489,-0.03439404386424019,1.124928042234763,-0.007122878450900316,0.04525656625628471,-0.09890801459550858,0.007608115673065186,0.00612342357635498,0.03128623962402344,2,0.4690878093242645,-0.2538964748382568,-0.3903570771217346,0.7504096031188965,-0.01482921373099089,-0.9022365808486938,-0.4309864044189453,14.84451293945312,-7.786979675292969,-37.74420166015625,2,0
1563194085.871993,171,0,65427.35959804167,-0.9444718653089009,-0.02717047974222734,1.123469711109316,-0.01776590943336487,0.07067912817001343,-0.05850452184677124,-0.008454233407974243,-0.007201433181762695,0.03846436738967896,2,0.4690843224525452,-0.2525100409984589,-0.391387015581131,0.7503431439399719,-0.01175133045762777,-0.9016067385673523,-0.4323971569538116,15.29003143310547,-7.799617767333984,-37.990234375,2,0
1563194085.894522,172,0,65427.39451004167,-0.948562911487365,-0.02155176588264288,1.120978816536656,-0.0885918065905571,0.01692929305136204,-0.03532166033983231,0.001204252243041992,0.00600045919418335,0.0009111166000366211,2,0.4687275588512421,-0.2508871555328369,-0.3918956816196442,0.7508447766304016,-0.009370008483529091,-0.9005264639854431,-0.434700220823288,15.49484252929688,-7.752609252929688,-37.71429443359375,2,0
1563194085.932551,173,0,65427.42948304167,-0.9496411839848445,-0.02084170856167521,1.119245376147262,-0.139490470290184,-0.04692899808287621,-0.01726520620286465,0.005353212356567383,-0.009952008724212646,-0.01871728897094727,2,0.4680762588977814,-0.2505419254302979,-0.3923377394676208,0.7511354088783264,-0.009093860164284706,-0.8997713923454285,-0.4362667202949524,15.36106109619141,-7.548839569091797,-38.1024169921875,2,0
1563194085.959912,174,0,65427.46442604167,-0.9526403073292019,-0.01951870434305785,1.110518157115624,-0.2619852423667908,0.03479574248194695,-0.03929108381271362,-0.002715617418289185,-0.003845036029815674,0.02124673128128052,2,0.464659184217453,-0.2490691691637039,-0.3941804468631744,0.7527803182601929,-0.00866960734128952,-0.8959289789199829,-0.4441127777099609,15.42571258544922,-7.556251525878906,-38.08538818359375,2,0
1563194085.993793,175,0,65427.49939904167,-0.9574404867126514,-0.01212453898928856,1.101748006318603,-0.2143498063087463,0.07455365359783173,-0.05567645281553268,0.01822030544281006,-0.003303349018096924,-0.02054619789123535,2,0.4622026383876801,-0.245696023106575,-0.3953086733818054,0.7548067569732666,-0.005480613093823195,-0.8919988870620728,-0.4520043730735779,15.64255523681641,-7.133716583251953,-38.17315673828125,2,0
1563194086.025885,176,0,65427.53431104167,-0.9603420398356767,-0.007539021727082365,1.101877908311236,0.09740203619003296,0.07279469072818756,-0.03034528158605099,0.01506391167640686,-0.007273077964782715,-0.01392775774002075,2,0.4628024697303772,-0.244661808013916,-0.3953278362751007,0.7547651529312134,-0.003407015930861235,-0.8920575976371765,-0.4519089460372925,15.7264404296875,-6.892410278320312,-38.39398193359375,2,0
1563194086.059723,177,0,65427.56928404167,-0.9608350805087548,-0.000138974017121252,1.105802935445846,0.09144187718629837,0.2201114445924759,-0.0004947073175571859,-0.006239593029022217,-0.008405447006225586,-0.007012546062469482,2,0.4656843841075897,-0.2427542209625244,-0.3933236002922058,0.7546555399894714,-6.231829320313409e-05,-0.8938245177268982,-0.4484168887138367,16.02702331542969,-7.075191497802734,-38.369384765625,2,0
1563194086.113704,178,0,65427.60424316667,-0.960254118417287,0.002804126270512241,1.107545924073077,0.0507989414036274,0.06345434486865997,0.009786938317120075,0.005659490823745728,-0.005489647388458252,0.02403569221496582,2,0.4669901728630066,-0.2418510466814041,-0.3922061026096344,0.7547202110290527,0.001253045280463994,-0.8946047425270081,-0.4468564987182617,16.00786590576172,-7.367294311523438,-38.154052734375,2,0
1563194086.126071,179,0,65427.63921616667,-0.9585293558502695,-0.0008253126892869273,1.107796582674944,0.03960937634110451,0.01449317298829556,0.02299367636442184,-0.001264184713363647,-0.004157185554504395,0.01366621255874634,2,0.4665818214416504,-0.2428671568632126,-0.3923719227313995,0.7545602917671204,-0.0003686127020046115,-0.894716739654541,-0.446633905172348,16.07511138916016,-7.194026947021484,-38.0045166015625,2,0
1563194086.165558,180,0,65427.67412816667,-0.9564305914028353,0.0008440567370333051,1.109380855294706,0.01849235035479069,0.06891164183616638,0.01410603150725365,0.01474577188491821,0.003079891204833984,0.02697336673736572,2,0.4677609801292419,-0.2420572191476822,-0.3909979462623596,0.7548037171363831,0.0003757876111194491,-0.8954232335090637,-0.4452159404754639,16.19126129150391,-7.283000946044922,-37.88623046875,2,0
1563194086.191443,181,0,65427.70910116667,-0.958060488279411,0.002016353588092801,1.107701496356216,-0.07794207334518433,0.001936784014105797,-0.03430099785327911,0.009032964706420898,-0.0007050633430480957,0.01239222288131714,2,0.4671596586704254,-0.2416666597127914,-0.3915431797504425,0.7550185322761536,0.0009007430053316057,-0.8946742415428162,-0.446718156337738,16.13871002197266,-7.083347320556641,-37.9080810546875,2,0
1563194086.227433,182,0,65427.74404416667,-0.9589338518846182,0.003061020679447627,1.10637697157701,-0.02463752031326294,0.02863261289894581,0.006044581066817045,-0.004529267549514771,-0.006546318531036377,0.02631646394729614,2,0.4667590856552124,-0.2412159144878387,-0.3917901813983917,0.7552822828292847,0.001371040591038764,-0.8940817713737488,-0.4479016661643982,16.30914306640625,-7.110725402832031,-38.04327392578125,2,0
1563194086.25736,183,0,65427.77901716667,-0.956360091943911,-0.001491106345991599,1.103418607614233,-0.07991982251405716,-0.07093784958124161,0.05445632338523865,-0.0136411190032959,-0.007676362991333008,0.001631677150726318,2,0.4650602340698242,-0.2417558133602142,-0.3922363519668579,0.755925714969635,-0.0006718127988278866,-0.8927528262138367,-0.4505462050437927,16.21855926513672,-7.098949432373047,-37.9951171875,2,0
1563194086.289387,184,0,65427.81392916667,-0.9534097700405331,-0.006398060651474162,1.102962936504903,-0.007278044708073139,-0.05554312467575073,0.03116874024271965,0.008926987648010254,-0.002357900142669678,-0.004791080951690674,2,0.464282751083374,-0.2428361177444458,-0.3923157453536987,0.7560161948204041,-0.002885208232328296,-0.8925474286079407,-0.4509443044662476,15.90638732910156,-7.205814361572266,-38.340087890625,2,0
1563194086.323323,185,0,65427.84890216667,-0.9534433405832025,-0.005450822998624259,1.102218493409208,-0.02602933719754219,0.03292132914066315,0.003348377533257008,0.02861467003822327,-0.005028188228607178,-0.0002334713935852051,2,0.4641824662685394,-0.2423407882452011,-0.3921971917152405,0.7562981843948364,-0.002461676951497793,-0.8922114372253418,-0.4516111612319946,16.14999389648438,-7.104274749755859,-38.23272705078125,2,0
1563194086.355322,186,0,65427.88384516667,-0.9520084125502296,-0.006740712828279276,1.102863117261664,0.03722560778260231,0.01470198668539524,0.03033748641610146,0.007479876279830933,-0.006583333015441895,0.003093898296356201,2,0.4643478393554688,-0.2426209300756454,-0.3918773531913757,0.7562726140022278,-0.003040325595065951,-0.8925024271011353,-0.4510323405265808,15.90995788574219,-7.065116882324219,-38.13336181640625,2,0
1563194086.389218,187,0,65427.91881816667,-0.9503933955689063,-0.01001993286480884,1.101516475287259,-0.1140793934464455,-0.1675398349761963,0.006184192840009928,0.02979877591133118,-0.003727495670318604,-0.03178912401199341,2,0.4633905589580536,-0.2432251572608948,-0.3921864032745361,0.7565054893493652,-0.004531379789113998,-0.8918942213058472,-0.4522214233875275,15.85799407958984,-7.092391967773438,-38.11529541015625,2,0
1563194086.421796,188,0,65427.91881816667,-0.9503933955689063,-0.01001993286480884,1.101516475287259,-0.1140793934464455,-0.1675398349761963,0.006184192840009928,0.02979877591133118,-0.003727495670318604,-0.03178912401199341,2,0.4633905589580536,-0.2432251572608948,-0.3921864032745361,0.7565054893493652,-0.004531379789113998,-0.8918942213058472,-0.4522214233875275,15.85799407958984,-7.092391967773438,-38.11529541015625,2,0
1563194086.47318,189,0,65427.95376116667,-0.9515193073461875,-0.01250694634649648,1.099054621752767,-0.05307051539421082,0.03501139953732491,-0.02763336338102818,-0.003091692924499512,-0.002096772193908691,0.03775936365127563,2,0.4618304073810577,-0.2439492791891098,-0.3934769034385681,0.7565562129020691,-0.005683488212525845,-0.890778124332428,-0.4544028341770172,15.70516204833984,-7.092494964599609,-38.24908447265625,2,0
1563194086.487224,190,0,65427.98873416667,-0.9512738607763124,-0.01017702868358075,1.098565114667847,0.01432912983000278,0.05368252471089363,0.02262572944164276,-0.00362694263458252,-0.006362736225128174,-0.01083457469940186,2,0.4621324241161346,-0.2429159730672836,-0.3929032981395721,0.7570022940635681,-0.004629190545529127,-0.8905555605888367,-0.4548509120941162,16.03804016113281,-6.861080169677734,-38.4227294921875,2,0
1563194086.53159,191,0,65428.02364616667,-0.9504303988294397,-0.01178701665887939,1.098227921061731,-0.01715577952563763,-0.0001736674457788467,0.005446435417979956,-0.006812810897827148,0.006225049495697021,0.01506173610687256,2,0.4617905616760254,-0.2432651966810226,-0.3929955065250397,0.7570508718490601,-0.005365027114748955,-0.8904021382331848,-0.4551430344581604,15.82328033447266,-6.822742462158203,-38.40606689453125,2,0
1563194086.553945,192,0,65428.05861916667,-0.9517920437827819,-0.008990526477284584,1.097503374835022,-0.01516489498317242,0.07930713891983032,-0.01980830170214176,0.00507354736328125,-0.003199100494384766,0.02028220891952515,2,0.4618994891643524,-0.2423802465200424,-0.3929503262042999,0.7572917342185974,-0.004098004661500454,-0.8900721073150635,-0.4558013677597046,16.13414001464844,-6.803180694580078,-38.28466796875,2,0
1563194086.595542,193,0,65428.09356216667,-0.9529030473003707,-0.005462829499618242,1.098120943767688,0.05129961296916008,0.07701889425516129,0.0009926479542627931,0.01002424955368042,-0.006701827049255371,0.01492232084274292,2,0.4626922011375427,-0.2414215058088303,-0.3924826085567474,0.757356584072113,-0.002487049903720617,-0.8903534412384033,-0.4552631676197052,16.03037261962891,-6.739948272705078,-38.26507568359375,2,0
1563194086.618926,194,0,65428.12853516667,-0.953015757115271,-0.005704133454906791,1.097792238822849,-0.08324936032295227,-0.07364160567522049,-0.003241020254790783,-0.001888155937194824,-0.003357350826263428,-0.02563345432281494,2,0.4625065326690674,-0.2414748519659042,-0.3926200866699219,0.7573817372322083,-0.002598575782030821,-0.8902037739753723,-0.4555552005767822,16.19702911376953,-7.062847137451172,-38.2769775390625,2,0
1563194086.652863,195,0,65428.16344716667,-0.9528075899585788,-0.00835645976415202,1.095575958852745,0.03658371046185493,-0.04784062504768372,-0.003442683489993215,0.01445776224136353,0.008082211017608643,0.01772642135620117,2,0.4611692130565643,-0.2419994473457336,-0.3934156894683838,0.7576168775558472,-0.003823323408141732,-0.8891919255256653,-0.457518458366394,16.00495147705078,-6.697101593017578,-38.54022216796875,2,0
1563194086.684826,196,0,65428.19842016667,-0.9539230903330158,-0.004903826817520445,1.098206171008038,0.09383442997932434,0.1361155062913895,0.0007246721070259809,0.02284622192382812,-0.01780247688293457,-0.0008836984634399414,2,0.4627110958099365,-0.2414624094963074,-0.3927293717861176,0.7572041153907776,-0.002232184400781989,-0.8903922438621521,-0.4551886916160583,15.98750305175781,-6.519344329833984,-38.33441162109375,2,0
1563194086.718848,197,0,65428.23336316667,-0.9521908598127197,-0.003191018497604143,1.101455208835589,0.06416614353656769,0.03163409978151321,0.03102618083357811,0.01148319244384766,-0.01217830181121826,-0.02153635025024414,2,0.4644872844219208,-0.2410463094711304,-0.3912896811962128,0.7569944858551025,-0.001443291315808892,-0.8918665051460266,-0.4522964656352997,16.23661804199219,-6.713394165039062,-38.23846435546875,2,0
1563194086.751902,198,0,65428.26833616667,-0.9506808571114813,-0.004514585640693019,1.103569288569566,0.07642298191785812,0.07363677769899368,0.02131631597876549,-0.01372942328453064,0.008825957775115967,0.04681134223937988,2,0.4652116894721985,-0.2416076809167862,-0.3907739222049713,0.7566369771957397,-0.002033417578786612,-0.8928207159042358,-0.4504076242446899,16.25353240966797,-7.014877319335938,-38.135498046875,2,0
1563194086.784676,199,0,65428.30324816667,-0.9493052081417499,-0.001289649012545324,1.104208448239102,-0.01037195604294538,0.1081167310476303,0.02572751417756081,-0.01158127188682556,0.002811551094055176,0.04085880517959595,2,0.466248482465744,-0.2401910275220871,-0.3894260227680206,0.7571446895599365,-0.0005801376537419856,-0.8931084275245667,-0.4498412311077118,16.29969024658203,-6.962615966796875,-38.02978515625,2,0
1563194086.827128,200,0,65428.33822116667,-0.9520011058283327,-0.003958192685312174,1.101741099531657,-0.1497636139392853,-0.3317958116531372,-0.07521698623895645,0.06146591901779175,-0.00297015905380249,-0.06215184926986694,2,0.4644683599472046,-0.2413482367992401,-0.3913619220256805,0.7568725943565369,-0.001789272064343095,-0.8919957876205444,-0.4520403444766998,16.43740081787109,-6.733226776123047,-38.06884765625,2,0
1563194086.850521,201,0,65428.37316416667,-0.9562006034002046,-0.001632033849487488,1.10024464692757,-0.01711675152182579,0.0937170684337616,-0.05923402309417725,0.01531192660331726,-0.0180211067199707,0.03937399387359619,2,0.4638510048389435,-0.2411504685878754,-0.3925900757312775,0.75667804479599,-0.0007399279274977744,-0.8913183212280273,-0.4533773958683014,16.44325256347656,-6.598846435546875,-38.25439453125,2,0
1563194086.887936,202,0,65428.40813716667,-0.9544319375228354,0.001710093503015287,1.100193812261599,0.05395526811480522,0.1027475744485855,0.0592980720102787,-0.01003727316856384,-0.01075077056884766,-0.03724074363708496,2,0.4646991193294525,-0.2394648492336273,-0.3911508619785309,0.7574379444122314,0.0007753958343528211,-0.8912952542304993,-0.4534226357936859,16.36479187011719,-6.771633148193359,-38.223388671875,2,0
1563194086.916999,203,0,65428.44304916667,-0.9497884404048024,-0.002809512105585211,1.102601045861532,0.07160205394029617,-0.03931733965873718,0.05445339158177376,-0.003996729850769043,0.00384211540222168,-0.02470928430557251,2,0.4652852714061737,-0.2405665516853333,-0.3901548981666565,0.7572426795959473,-0.001267865067347884,-0.8923841714859009,-0.4512746930122375,16.40857696533203,-6.742404937744141,-38.0982666015625,2,0
1563194086.954402,204,0,65428.47802216667,-0.9488427031740413,-0.00352108891912523,1.104380025407179,0.01181074418127537,0.04267437756061554,-0.0111768925562501,0.006420046091079712,0.006520450115203857,0.0211411714553833,2,0.4659344851970673,-0.2409613132476807,-0.3897505402565002,0.7569261193275452,-0.001583388773724437,-0.893185555934906,-0.4496853947639465,16.48273468017578,-7.021610260009766,-38.03741455078125,2,0
1563194086.982391,205,0,65428.51296516667,-0.9506118453942042,-0.001643734710904001,1.104651379773185,0.02968680113554001,-0.02406817674636841,-0.0183162335306406,0.02034613490104675,-0.003184258937835693,0.0121731162071228,2,0.4661901295185089,-0.240715816617012,-0.3899500966072083,0.7567440867424011,-0.0007387695368379354,-0.8933075666427612,-0.4494453072547913,16.44968414306641,-6.949569702148438,-37.956298828125,2,0
1563194087.014364,206,0,65428.51296516667,-0.9506118453942042,-0.001643734710904001,1.104651379773185,0.02968680113554001,-0.02406817674636841,-0.0183162335306406,0.02034613490104675,-0.003184258937835693,0.0121731162071228,2,0.4661901295185089,-0.240715816617012,-0.3899500966072083,0.7567440867424011,-0.0007387695368379354,-0.8933075666427612,-0.4494453072547913,16.44968414306641,-6.949569702148438,-37.956298828125,2,0
1563194087.048292,207,0,65428.54793816667,-0.9525072151694151,-0.0006046928975803705,1.104724596314938,-0.01944050565361977,0.001067023724317551,-0.02004661224782467,-0.001467794179916382,-0.005714952945709229,0.0191882848739624,2,0.4661924242973328,-0.2407788783311844,-0.3904161751270294,0.7564821839332581,-0.0002717371098697186,-0.8933404684066772,-0.4493803083896637,16.36203765869141,-6.70819091796875,-37.91680908203125,2,0
1563194087.080345,208,0,65428.58285016667,-0.9536372901059761,0.001197854722978632,1.103916827548891,-0.02157234214246273,0.04219423234462738,-0.007781547494232655,-0.001881808042526245,-0.002782225608825684,0.009213089942932129,2,0.4661028683185577,-0.2402025163173676,-0.3905207216739655,0.7566667199134827,0.0005391567246988416,-0.8929771780967712,-0.4501017332077026,16.50138092041016,-6.926422119140625,-37.9674072265625,2,0
1563194087.131818,209,0,65428.617835625,-0.9536035184894722,0.002304012094783011,1.103286312927646,-0.009333809837698936,0.02476143464446068,0.007804726716130972,0.006423473358154297,-0.005873680114746094,-0.01044297218322754,2,0.4660844206809998,-0.2396527826786041,-0.3903262317180634,0.7569526433944702,0.001038336427882314,-0.8926932215690613,-0.4506637156009674,16.75960540771484,-6.839836120605469,-37.9375,2,0
1563194087.146134,210,0,65428.652778625,-0.9530476904611299,0.001489030239168487,1.103969124167496,0.022720942273736,0.002606950700283051,0.0007493575103580952,-0.0005784332752227783,-0.00256037712097168,0.0006670355796813965,2,0.4662502706050873,-0.2399651706218719,-0.3902234733104706,0.7568045258522034,0.0006701457314193249,-0.8930007219314575,-0.450054794549942,16.69111633300781,-6.804737091064453,-38.003662109375,2,0
1563194087.193421,211,0,65428.687751625,-0.9538654534190149,0.002902275769725952,1.103697838753844,-0.008303890936076641,0.02387268655002117,-0.006824241951107979,0.00864216685295105,-0.0003781914710998535,0.007972419261932373,2,0.4663254022598267,-0.2395679801702499,-0.3902361989021301,0.7568774819374084,0.001306885736994445,-0.8928785920143127,-0.4502955973148346,16.74469757080078,-6.817283630371094,-37.94677734375,2,0
1563194087.212163,212,0,65428.722694625,-0.9546368385716727,0.003380932110726451,1.103104769502101,-0.01701146177947521,0.0003732498735189438,-0.003426765790209174,0.01158344745635986,-0.002461075782775879,0.008073866367340088,2,0.4661022126674652,-0.2394504249095917,-0.3904882669448853,0.75692218542099,0.001524212653748691,-0.8926113843917847,-0.4508244395256042,16.65796661376953,-6.495594024658203,-37.96295166015625,2,0
1563194087.251754,213,0,65428.757667625,-0.9549893576223142,0.003790298666276686,1.102719531806857,-0.001650589052587748,0.01016019470989704,-0.001283638644963503,0.001982986927032471,-0.003977477550506592,0.001107931137084961,2,0.4659943282604218,-0.2393021136522293,-0.3905729353427887,0.7569918036460876,0.001710067968815565,-0.8924376368522644,-0.4511675834655762,16.82113647460938,-6.823116302490234,-37.98822021484375,2,0
1563194087.27795,214,0,65428.79257962501,-0.9555106857164355,0.004761033648036211,1.102890669250216,-0.01442814618349075,0.02142885327339172,-0.00835791602730751,0.01189133524894714,-0.0006654262542724609,0.003654181957244873,2,0.4661862254142761,-0.2390897870063782,-0.3905232846736908,0.7569663524627686,0.002147304126992822,-0.8925148248672485,-0.4510129392147064,16.68738555908203,-6.892154693603516,-37.976806640625,2,0
1563194087.31199,215,0,65428.82755262501,-0.9559428555703983,0.005111179613763633,1.1024750572741,0.01175615005195141,-0.005934969522058964,0.002345840446650982,0.003568053245544434,-0.002790749073028564,0.004985570907592773,2,0.4660458862781525,-0.238976314663887,-0.3906556963920593,0.7570202946662903,0.002307120244950056,-0.8923273086547852,-0.451383113861084,16.78211975097656,-6.731369018554688,-37.90765380859375,2,0
1563194087.344429,216,0,65428.86249562501,-0.9560928207377231,0.00512214970666233,1.102552728096727,-0.01264673005789518,0.006188204512000084,-0.0003265399136580527,0.003120988607406616,-0.001351892948150635,0.009921133518218994,2,0.4660594463348389,-0.2390223443508148,-0.3907004594802856,0.7569743394851685,0.002311717253178358,-0.8923623561859131,-0.4513138234615326,16.53749847412109,-6.618900299072266,-37.90545654296875,2,0
1563194087.377881,217,0,65428.89746862501,-0.9568214213318897,0.005691433021632148,1.102393952947356,0.001026154030114412,0.01023130118846893,-0.009772730059921741,0.005258947610855103,-0.005863845348358154,0.008718490600585938,2,0.4660236537456512,-0.2389454990625381,-0.3908628821372986,0.7569367289543152,0.002569447970017791,-0.8922907114028931,-0.4514540135860443,16.72766876220703,-6.389472961425781,-37.89984130859375,2,0
1563194087.411904,218,0,65428.932380625,-0.9573561670274787,0.006539756497684036,1.102299408068057,-0.004845825955271721,0.01168727688491344,0.001697647734545171,0.01113161444664001,-0.003541231155395508,0.005260348320007324,2,0.4660898745059967,-0.2387304306030273,-0.3908790946006775,0.7569554448127747,0.00295297778211534,-0.8922480344772339,-0.4515360295772552,16.87486267089844,-6.488613128662109,-37.85711669921875,2,0
1563194087.443663,219,0,65428.967353625,-0.9568993185440398,0.006375134758952993,1.10224631054004,-0.006584870163351297,0.01375042647123337,0.00533605832606554,-0.0002995133399963379,-0.00219196081161499,0.002912640571594238,2,0.4660921692848206,-0.2386758029460907,-0.3907510042190552,0.7570374011993408,0.002878947183489799,-0.8922240138053894,-0.4515838921070099,16.88452911376953,-6.622200012207031,-37.82550048828125,2,0
1563194087.492179,220,0,65429.002296625,-0.9566384305553781,0.006020378865741526,1.102308734027597,0.0001709372736513615,0.002998474985361099,0.005989146418869495,0.009702920913696289,-0.002957344055175781,0.00532984733581543,2,0.466077595949173,-0.2387616038322449,-0.3907273411750793,0.7570315003395081,0.002718409290537238,-0.8922522068023682,-0.4515291452407837,16.53595733642578,-6.369499206542969,-37.8128662109375,2,0
1563194087.509591,221,0,65429.03726962501,-0.9568275260258947,0.006249179523842254,1.101912978056903,-0.004851270467042923,0.0099155493080616,-0.001243405509740114,0.006621986627578735,0.0001444220542907715,0.0004639029502868652,2,0.4659501910209656,-0.2386411130428314,-0.3907937407493591,0.7571136951446533,0.002823926508426666,-0.8920734524726868,-0.4518816769123077,16.63800811767578,-6.454742431640625,-37.97991943359375,2,0
1563194087.553265,222,0,65429.072181625,-0.9569451704044352,0.005933327145199101,1.10158284996054,-0.01115437224507332,-0.01233056001365185,0.001452145166695118,0.006381481885910034,-0.00359046459197998,0.0003317594528198242,2,0.4657497107982635,-0.2387231439352036,-0.3909520208835602,0.757129430770874,0.002682945225387812,-0.8919242024421692,-0.4521769285202026,16.58451843261719,-6.441947937011719,-37.8489990234375,2,0
1563194087.575727,223,0,65429.072181625,-0.9569451704044352,0.005933327145199101,1.10158284996054,-0.01115437224507332,-0.01233056001365185,0.001452145166695118,0.006381481885910034,-0.00359046459197998,0.0003317594528198242,2,0.4657497107982635,-0.2387231439352036,-0.3909520208835602,0.757129430770874,0.002682945225387812,-0.8919242024421692,-0.4521769285202026,16.58451843261719,-6.441947937011719,-37.8489990234375,2,0
1563194087.607536,224,0,65429.107154625,-0.956964905551122,0.005749748904434849,1.101524159096112,0.01795833557844162,0.005512241274118423,0.008376608602702618,0.01032459735870361,-0.002945899963378906,0.004031658172607422,2,0.4656892716884613,-0.2387856394052505,-0.3910093605518341,0.7571173310279846,0.002600236795842648,-0.8918976783752441,-0.4522298276424408,16.47751617431641,-6.324371337890625,-37.9991455078125,2,0
1563194087.641466,225,0,65429.142097625,-0.9572766060600569,0.006529059810622084,1.102166110545879,0.004203932825475931,0.02428043633699417,-0.005196907557547092,0.007946580648422241,1.442432403564453e-05,0.01139152050018311,2,0.466046929359436,-0.2386896759271622,-0.3908677101135254,0.7570006251335144,0.00294892443343997,-0.8921878337860107,-0.4516550004482269,16.64010620117188,-6.26275634765625,-37.86151123046875,2,0
1563194087.673746,226,0,65429.177070625,-0.9580393895561713,0.007282824437135301,1.101920156835391,-0.01224401593208313,-0.0021961759775877,-0.00524537730962038,0.007589370012283325,-0.005391478538513184,0.006420671939849854,2,0.4660103619098663,-0.238533616065979,-0.3910107612609863,0.7569984793663025,0.003290963359177113,-0.8920766711235046,-0.4518721103668213,16.82596588134766,-6.562454223632812,-37.7618408203125,2,0
1563194087.707293,227,0,65429.21198262501,-0.9585388163460198,0.007156663529704607,1.101592019361678,-0.008223297074437141,-0.008902273140847683,-0.00479509774595499,-0.0008853673934936523,-0.002503156661987305,0.007827401161193848,2,0.4658022224903107,-0.2386330366134644,-0.3912692368030548,0.7569616436958313,0.003236048854887486,-0.8919283747673035,-0.4521651268005371,16.46642303466797,-6.266883850097656,-37.9208984375,2,0
1563194087.739925,228,0,65429.24695562501,-0.9588869256105237,0.007430864944508578,1.101483739888139,-0.006632008124142885,0.01135171763598919,-0.0008480678661726415,0.001965433359146118,-0.002353847026824951,0.01674282550811768,2,0.4657734334468842,-0.2385889142751694,-0.3913503289222717,0.7569513916969299,0.003360751317813993,-0.8918793797492981,-0.4522608816623688,16.74600982666016,-6.424385070800781,-37.8486328125,2,0
1563194087.788516,229,0,65429.28189862501,-0.9597193993719971,0.008503315073686705,1.100756851503362,-0.01945219561457634,0.006729060783982277,-0.01105336472392082,0.005533814430236816,-0.0007906556129455566,0.009177505970001221,2,0.4656096994876862,-0.2382333129644394,-0.3915045857429504,0.7570842504501343,0.003851286601275206,-0.8915504217147827,-0.452904999256134,16.74864959716797,-6.582469940185547,-37.85626220703125,2,0
1563194087.805801,230,0,65429.31687162501,-0.9604394461899894,0.008718114023274711,1.099925952965189,-0.02190724574029446,-0.006368700414896011,-0.007953852415084839,0.005002856254577637,-0.002784669399261475,0.005354940891265869,2,0.4652522802352905,-0.2381550818681717,-0.3918288052082062,0.7571609616279602,0.003955028485506773,-0.891173779964447,-0.4536449313163757,16.80034637451172,-6.449550628662109,-37.84979248046875,2,0
1563194087.852166,231,0,65429.351783625,-0.9613182950386717,0.009532999439375514,1.098888374895993,-0.03218941763043404,0.01412307657301426,-0.007111414801329374,0.001862645149230957,-0.0004633665084838867,5.006790161132812e-05,2,0.4649156928062439,-0.2378453761339188,-0.3920991122722626,0.7573251128196716,0.00433350820094347,-0.8907026052474976,-0.4545659422874451,16.66600799560547,-6.411911010742188,-37.97216796875,2,0
1563194087.871123,232,0,65429.386756625,-0.9613821721434399,0.00946440044888242,1.098593154200111,0.001513320486992598,-0.003353074193000793,0.007404227741062641,0.005233019590377808,-0.005159974098205566,-0.006507515907287598,2,0.4647832214832306,-0.2378277331590652,-0.3921754360198975,0.7573723793029785,0.004304812755435705,-0.8905683159828186,-0.454829066991806,16.94503784179688,-6.236618041992188,-37.9326171875,2,0
1563194087.911864,233,0,65429.421699625,-0.9612031056125303,0.009101139109356157,1.098367411573537,-0.009753961116075516,-0.002527739852666855,0.007631006650626659,0.009104222059249878,-0.00132596492767334,0.0005767941474914551,2,0.46464803814888,-0.2378789186477661,-0.3922196626663208,0.7574163675308228,0.004141420591622591,-0.8904656171798706,-0.4550316333770752,16.81221008300781,-6.347465515136719,-37.83636474609375,2,0
1563194087.937623,234,0,65429.45667262501,-0.9608580640777027,0.008380404388636645,1.098259723305417,-0.0001615672372281551,-0.01257090363651514,0.006512786261737347,0.01039260625839233,-0.00300753116607666,0.005878746509552002,2,0.4645070731639862,-0.2380503863096237,-0.3922695815563202,0.7574231028556824,0.003814266063272953,-0.8904166221618652,-0.455130398273468,16.80224609375,-6.311813354492188,-37.99371337890625,2,0
1563194087.976437,235,0,65429.491615625,-0.9609448350868764,0.008035461848571903,1.097961767165722,-0.008725974708795547,0.005895102396607399,-0.001052026753313839,0.007037907838821411,-0.004195928573608398,0.01165348291397095,2,0.4643165469169617,-0.238142192363739,-0.3924189507961273,0.7574336528778076,0.003659402951598167,-0.8902809619903564,-0.4553968906402588,16.86473083496094,-6.197422027587891,-38.05194091796875,2,0
1563194088.002978,236,0,65429.52658862501,-0.9612356954882683,0.008451376129016652,1.097902078855764,-0.001038809772580862,0.003183092921972275,-0.00177982694003731,0.00396418571472168,-0.0006067156791687012,0.009599387645721436,2,0.4643409550189972,-0.2380403131246567,-0.3924398124217987,0.7574399709701538,0.003849258879199624,-0.8902537822723389,-0.4554485678672791,16.54547119140625,-6.335617065429688,-37.89031982421875,2,0
1563194088.038564,237,0,65429.561500625,-0.9617442741611151,0.008650733938761757,1.097670785290779,-0.00648976769298315,-0.0002553146332502365,-0.003585982834920287,0.008617103099822998,-0.004130065441131592,0.003975570201873779,2,0.4642322063446045,-0.2380370497703552,-0.3926144242286682,0.7574171423912048,0.003941836766898632,-0.890148401260376,-0.4556536376476288,16.88275146484375,-6.236343383789062,-37.7357177734375,2,0
1563194088.068899,238,0,65429.596473625,-0.9619728608241801,0.009164307214210779,1.097403131007961,-0.004532708786427975,0.01861322298645973,0.003205161076039076,0.007282346487045288,-0.002924442291259766,0.002349972724914551,2,0.4642047584056854,-0.2378425300121307,-0.3926145434379578,0.7574949860572815,0.004178030882030725,-0.8900264501571655,-0.4558897316455841,16.78098297119141,-6.042057037353516,-38.00408935546875,2,0
1563194088.102962,239,0,65429.63139925001,-0.9622136556507507,0.009792729979023416,1.097834039536812,0.01729279011487961,0.0218504536896944,-0.005189143586903811,0.005977362394332886,0.001284956932067871,0.003978073596954346,2,0.4644621610641479,-0.2377459108829498,-0.3925070464611053,0.7574232816696167,0.004460765980184078,-0.8902227878570557,-0.4555035531520844,16.78928375244141,-6.126064300537109,-37.83831787109375,2,0
1563194088.149743,240,0,65429.63139925001,-0.9622136556507507,0.009792729979023416,1.097834039536812,0.01729279011487961,0.0218504536896944,-0.005189143586903811,0.005977362394332886,0.001284956932067871,0.003978073596954346,2,0.4644621610641479,-0.2377459108829498,-0.3925070464611053,0.7574232816696167,0.004460765980184078,-0.8902227878570557,-0.4555035531520844,16.78928375244141,-6.126064300537109,-37.83831787109375,2,0
1563194088.168826,241,0,65429.66637225,-0.9631619898527719,0.01100404192973857,1.098113449495717,0.009402256458997726,0.01059707999229431,-0.007513673976063728,0.01066222786903381,-0.00240248441696167,0.002411186695098877,2,0.4646927118301392,-0.2375631034374237,-0.392550528049469,0.7573165893554688,0.005009780172258615,-0.8903500437736511,-0.4552489221096039,17.16826629638672,-6.348278045654297,-37.856689453125,2,0
1563194088.211063,242,0,65429.70128425,-0.9640984459463483,0.01175285498377763,1.098373408818281,0.008187735453248024,0.004212699830532074,-0.01007276587188244,0.008401542901992798,-0.002116203308105469,0.004434287548065186,2,0.4648265242576599,-0.2375488579273224,-0.3926990628242493,0.7571619749069214,0.005347955971956253,-0.8904683589935303,-0.4550136923789978,17.15376281738281,-6.369434356689453,-37.8114013671875,2,0
1563194088.234805,243,0,65429.73625725001,-0.9650652016441513,0.01308031976932797,1.098662751097398,0.01285262405872345,0.0284018199890852,-0.01191569399088621,-0.001094847917556763,-0.001893162727355957,0.01059311628341675,2,0.465081512928009,-0.2373287528753281,-0.3927207291126251,0.7570631504058838,0.005948595236986876,-0.8905999660491943,-0.4547485113143921,16.67043304443359,-6.201622009277344,-37.70367431640625,2,0
1563194088.278203,244,0,65429.77120025,-0.9657436094699192,0.01416003087019014,1.098717908629878,-0.02175324037671089,0.00584070198237896,-0.004218400456011295,0.0062122642993927,-0.004278957843780518,0.004174530506134033,2,0.4652338325977325,-0.2370887994766235,-0.392719566822052,0.7570453882217407,0.006438893731683493,-0.8906250596046448,-0.4546927511692047,16.69971466064453,-6.587448120117188,-37.70098876953125,2,0
1563194088.30108,245,0,65429.80617325001,-0.9658118644539521,0.01375835434112246,1.098540477600346,0.01375062204897404,0.001563847064971924,0.002088597044348717,0.0005027651786804199,-0.004481673240661621,0.002152979373931885,2,0.4650799930095673,-0.2372213006019592,-0.3928608000278473,0.7570251226425171,0.00625842809677124,-0.8905443549156189,-0.4548532962799072,17.10044860839844,-6.218521118164062,-37.83245849609375,2,0
1563194088.334103,246,0,65429.84108525,-0.9651592201204522,0.01514013738466534,1.100966454087098,0.08384987711906433,0.1049619615077972,0.01234273239970207,0.004301697015762329,0.001349151134490967,0.007825911045074463,2,0.4663423597812653,-0.2370305508375168,-0.3919911980628967,0.756758987903595,0.006854201201349497,-0.8916453123092651,-0.4526826441287994,17.06280517578125,-6.208202362060547,-37.77728271484375,2,0
1563194088.366577,247,0,65429.87605825,-0.96494198648916,0.0167445029613028,1.105921297223289,0.172652542591095,0.03064371459186077,0.006826566066592932,0.02163973450660706,-0.003347039222717285,-0.003671884536743164,2,0.4685461819171906,-0.2373611330986023,-0.3909166157245636,0.7558494806289673,0.00750639708712697,-0.8938776254653931,-0.4482483267784119,17.06732940673828,-6.209136962890625,-37.57281494140625,2,0
1563194088.398422,248,0,65429.91100125,-0.9647792166656887,0.01546225766115839,1.106661628081261,-0.02546767517924309,-0.05488894879817963,0.009683504700660706,0.006309688091278076,0.002294659614562988,-0.01010757684707642,2,0.4685931801795959,-0.2379551082849503,-0.3910630941390991,0.755557656288147,0.006921390071511269,-0.8942092657089233,-0.4475955963134766,17.01151275634766,-6.596450805664062,-37.6263427734375,2,0
1563194088.449839,249,0,65429.94597425,-0.9629926093447756,0.01484939846276667,1.10628292261378,0.02576241828501225,0.09459180384874344,0.03615462779998779,-0.008237391710281372,-0.007594704627990723,0.01580893993377686,2,0.4685434401035309,-0.2376927137374878,-0.3905787467956543,0.7559216022491455,0.006652105133980513,-0.8940396308898926,-0.4479384422302246,17.05930328369141,-6.558460235595703,-37.488037109375,2,0
