loggingTime,loggingSample,identifierForVendor,motionTimestamp_sinceReboot,motionYaw,motionRoll,motionPitch,motionRotationRateX,motionRotationRateY,motionRotationRateZ,motionUserAccelerationX,motionUserAccelerationY,motionUserAccelerationZ,motionAttitudeReferenceFrame,motionQuaternionX,motionQuaternionY,motionQuaternionZ,motionQuaternionW,motionGravityX,motionGravityY,motionGravityZ,motionMagneticFieldX,motionMagneticFieldY,motionMagneticFieldZ,motionMagneticFieldCalibrationAccuracy,label
1563194056.165141,1,0,65397.651226875,-1.330652065150026,0.008786679062515108,0.02259750287791566,0.0008330745622515678,-0.000944036990404129,0.001168940332718194,0.0002815853804349899,0.0004647113382816315,0.01093661785125732,2,0.01160052418708801,-0.00351860374212265,-0.6172312498092651,0.7866883873939514,0.008784322999417782,-0.02259557880461216,-0.9997060894966125,1.468826293945312,45.92013931274414,-60.51055908203125,2,0
1563194056.178295,2,0,65397.68616987501,-1.330667117019549,0.008787844852690156,0.02263446595470542,0.0007829964160919189,-9.144097566604614e-05,-0.0002354132011532784,-0.000238373875617981,0.0001659654080867767,0.01131725311279297,2,0.01161539554595947,-0.003529641544446349,-0.6172369718551636,0.7866836190223694,0.008785480633378029,-0.0226325336843729,-0.9997052550315857,1.545829772949219,45.78814315795898,-60.54638671875,2,0
1563194056.203849,3,0,65397.721142875,-1.330677558846312,0.008780335243731079,0.02256116131392039,-0.002372577786445618,0.0002005398273468018,9.959039743989706e-05,0.000196363776922226,0.0007335655391216278,0.01600342988967896,2,0.01158422790467739,-0.003510029520839453,-0.6172415018081665,0.7866806387901306,0.008777988143265247,-0.02255924791097641,-0.9997069835662842,1.616317749023438,45.79180526733398,-60.564453125,2,0
1563194056.236504,4,0,65397.75608487501,-1.330686601551746,0.008765574934641121,0.02257394640950116,0.0015711416490376,-0.0003644935786724091,-0.0009711867314763367,0.0003637056797742844,-3.18530946969986e-05,0.01368391513824463,2,0.01158468518406153,-0.003519834019243717,-0.617245078086853,0.7866777777671814,0.008763229474425316,-0.02257202938199043,-0.9997068047523499,1.52349853515625,45.92425155639648,-60.6319580078125,2,0
1563194056.27205,5,0,65397.791058875,-1.330707372056255,0.008760779492521248,0.02256926779096297,-0.001387597061693668,0.001481236889958382,0.00041727046482265,0.0001548752188682556,-0.0002959296107292175,0.01157838106155396,2,0.01158132869750261,-0.003520396770909429,-0.617253303527832,0.7866713404655457,0.00875843595713377,-0.02256735228002071,-0.9997069835662842,1.601272583007812,45.82843399047852,-60.7120361328125,2,0
1563194056.30179,6,0,65397.825970875,-1.330719052887053,0.008735242729114618,0.02255235302414065,0.0001583392731845379,0.001133818179368973,-0.001500681159086525,-0.00105556845664978,3.812089562416077e-05,0.01505798101425171,2,0.01156677398830652,-0.003525287611410022,-0.6172581315040588,0.7866677641868591,0.008732910268008709,-0.02255044132471085,-0.9997075796127319,1.521591186523438,46.07651138305664,-60.66729736328125,2,0
1563194056.353812,7,0,65397.86094387501,-1.330733529767252,0.008733032763194058,0.0225484602652503,-0.0008585695177316666,0.001541644334793091,0.0006700125522911549,0.0002741534262895584,-0.0005913786590099335,0.01582103967666626,2,0.01156453508883715,-0.003525038482621312,-0.6172638535499573,0.7866633534431458,0.008730702102184296,-0.0225465502589941,-0.9997076988220215,1.55255126953125,45.93532943725586,-60.60528564453125,2,0
1563194056.36757,8,0,65397.895885875,-1.330757766542073,0.008718003997814677,0.02253234289528998,-1.410441473126411e-05,-0.0007522255182266235,-0.001383921131491661,0.0002433937042951584,-0.0009279176592826843,0.01424986124038696,2,0.0115535156801343,-0.003526116022840142,-0.6172735691070557,0.7866557836532593,0.008715680800378323,-0.02253043651580811,-0.9997081756591797,1.502479553222656,46.11197280883789,-60.40814208984375,2,0
1563194056.416257,9,0,65397.895885875,-1.330757766542073,0.008718003997814677,0.02253234289528998,-1.410441473126411e-05,-0.0007522255182266235,-0.001383921131491661,0.0002433937042951584,-0.0009279176592826843,0.01424986124038696,2,0.0115535156801343,-0.003526116022840142,-0.6172735691070557,0.7866557836532593,0.008715680800378323,-0.02253043651580811,-0.9997081756591797,1.502479553222656,46.11197280883789,-60.40814208984375,2,0
1563194056.433973,10,0,65397.93085987501,-1.330778046891194,0.008731757557291527,0.02253699548815409,-8.76355916261673e-05,-0.0002527162432670593,-0.00113593996502459,0.001450350508093834,3.803707659244537e-05,0.01270848512649536,2,0.0115595543757081,-0.003522259183228016,-0.617281436920166,0.7866495847702026,0.008729428984224796,-0.02253508754074574,-0.9997079372406006,1.378372192382812,46.07265090942383,-60.56939697265625,2,0
1563194056.471346,11,0,65397.965771875,-1.330773515859375,0.008759062276901744,0.02253024386407238,-0.001848543062806129,0.001604640856385231,0.0001053644809871912,0.0002176156267523766,0.0001533590257167816,0.01397490501403809,2,0.01156533416360617,-0.003509409027174115,-0.6172795295715332,0.786651074886322,0.008756726980209351,-0.02252833731472492,-0.9997078776359558,1.281761169433594,46.04614639282227,-60.444580078125,2,0
1563194056.49955,12,0,65398.000744875,-1.330755427970376,0.008742574779260485,0.02253415918130003,-0.0004786127246916294,-0.00139772891998291,0.0003853596281260252,0.0004782360047101974,0.0002640821039676666,0.01408177614212036,2,0.01156181748956442,-0.0035169986076653,-0.6172724962234497,0.7866565585136414,0.008740243501961231,-0.02253225259482861,-0.9997079372406006,1.346946716308594,45.8758659362793,-60.6070556640625,2,0
1563194056.535419,13,0,65398.035686875,-1.330763172489099,0.00874982210296953,0.02252670017600906,-0.0002722823992371559,0.0008755307644605637,-0.001625916222110391,4.374422132968903e-05,0.001248449087142944,0.01502794027328491,2,0.01156110689043999,-0.003511890070512891,-0.6172755360603333,0.7866542339324951,0.008747490122914314,-0.02252479456365108,-0.9997079968452454,1.457649230957031,46.05939865112305,-60.41815185546875,2,0
1563194056.565324,14,0,65398.070660875,-1.330781136760365,0.008752538143556395,0.02251901031307677,-2.565793693065643e-05,0.002621842548251152,-0.0001617107773199677,0.0001630987972021103,-0.0003461539745330811,0.01424986124038696,2,0.01155888941138983,-0.003508552210405469,-0.6172826290130615,0.786648690700531,0.008750207722187042,-0.02251710742712021,-0.9997081756591797,1.267326354980469,45.96189498901367,-60.52301025390625,2,0
1563194056.599243,15,0,65398.10557287501,-1.330776521877154,0.008756213314237718,0.02254492834629146,-0.0002242675982415676,0.000932721421122551,0.0002531975042074919,0.0001899488270282745,-0.0004117991775274277,0.01260131597518921,2,0.01157022546976805,-0.003515080781653523,-0.6172806620597839,0.7866500020027161,0.008753876201808453,-0.02254301868379116,-0.9997075200080872,1.456550598144531,45.94350051879883,-60.4638671875,2,0
1563194056.632145,16,0,65398.140545875,-1.330775176630931,0.008769164488652998,0.02251888728950785,-0.0007075360044836998,-0.0004352666437625885,-0.001444651745259762,-0.0006317161023616791,4.673376679420471e-06,0.01362413167953491,2,0.0115639828145504,-0.003501939820125699,-0.6172801852226257,0.7866505980491638,0.008766829036176205,-0.02251698449254036,-0.9997079968452454,1.534141540527344,46.19820022583008,-60.44122314453125,2,0
1563194056.66523,17,0,65398.17548787501,-1.330789600047192,0.00878569365467315,0.02251293088768523,0.0005266214720904827,-0.002545265480875969,-0.0002348535344935954,9.944476187229156e-05,0.0004107058048248291,0.01579082012176514,2,0.0115667162463069,-0.003493682714179158,-0.6172857880592346,0.7866462469100952,0.008783354423940182,-0.02251102961599827,-0.9997079968452454,1.369895935058594,46.09006881713867,-60.375244140625,2,0
1563194056.709532,18,0,65398.210461875,-1.330782487067786,0.008789367353485669,0.02249890503510076,0.000821403693407774,0.0005773380398750305,0.0001561809331178665,0.0005535343661904335,4.573166370391846e-05,0.01391428709030151,2,0.0115623464807868,-0.003487867536023259,-0.617283046245575,0.7866484522819519,0.008787029422819614,-0.02249700762331486,-0.9997082948684692,1.474128723144531,45.9083366394043,-60.416015625,2,0
1563194056.731193,19,0,65398.245373875,-1.33078737160833,0.00879592574221863,0.02248250602509481,0.001008728053420782,-0.0001678932458162308,0.001361805596388876,0.0007453411817550659,0.0008075404912233353,0.01356363296508789,2,0.01155791245400906,-0.003480253973975778,-0.6172850131988525,0.7866470217704773,0.008793589659035206,-0.02248061262071133,-0.9997085928916931,1.308212280273438,46.02875900268555,-60.4451904296875,2,0
1563194056.775739,20,0,65398.28034687501,-1.330769884308965,0.008810802548736073,0.0224961434702042,-0.0002753571607172489,0.0003844369202852249,-1.909735146909952e-05,0.0003795213997364044,0.0006685853004455566,0.01585203409194946,2,0.01156789809465408,-0.003478511236608028,-0.617277979850769,0.7866523861885071,0.008808459155261517,-0.02249424532055855,-0.9997081756591797,1.353752136230469,46.09527969360352,-60.46636962890625,2,0
1563194056.79693,21,0,65398.315289875,-1.330782378415911,0.008798901867830595,0.02249066039852744,0.001141238957643509,-0.001046992838382721,-0.002213091822341084,-0.0004783356562256813,-0.0002982020378112793,0.01469260454177856,2,0.01156204659491777,-0.003481571329757571,-0.6172829866409302,0.7866485714912415,0.008796563372015953,-0.02248876355588436,-0.9997084140777588,1.378517150878906,46.02467727661133,-60.297607421875,2,0
1563194056.829214,22,0,65398.35026287501,-1.330791897365952,0.008768841972525546,0.02248753638137484,-0.001051729079335928,-0.0005567315965890884,-0.00133144180290401,-2.104602754116058e-05,-0.0003471020609140396,0.01446408033370972,2,0.01155152358114719,-0.003492485266178846,-0.6172869205474854,0.7866455912590027,0.008766512386500835,-0.02248564176261425,-0.9997087121009827,1.370887756347656,46.02145767211914,-60.25152587890625,2,0
1563194056.863514,23,0,65398.385174875,-1.330797735528277,0.008787577773361642,0.02248476021452647,-0.0004282784648239613,-0.00031265988945961,-0.001471856492571533,-0.0001465855166316032,-0.001402728259563446,0.01304489374160767,2,0.01155620440840721,-0.003484293119981885,-0.617289125919342,0.7866438031196594,0.008785243146121502,-0.0224828664213419,-0.9997086524963379,1.459671020507812,45.86652755737305,-60.52392578125,2,0
1563194056.894874,24,0,65398.420147875,-1.330780574729824,0.008777882304392314,0.02248101657146879,1.595262438058853e-05,-4.82555478811264e-05,0.00145190698094666,0.0008549271151423454,-0.0011318139731884,0.01344180107116699,2,0.01155176945030689,-0.003486851695924997,-0.6172824501991272,0.7866491079330444,0.008775551803410053,-0.02247912250459194,-0.9997087717056274,1.508216857910156,45.91268539428711,-60.55316162109375,2,0
1563194056.92878,25,0,65398.455090875,-1.330780135152948,0.008761597926094357,0.02248924229480782,-0.001432514283806086,-0.002358214929699898,-0.0005573146045207977,0.0007643923163414001,-0.0005742758512496948,0.01620358228683472,2,0.01154997944831848,-0.003495793556794524,-0.6172823309898376,0.7866491675376892,0.008759270422160625,-0.0224873460829258,-0.9997087717056274,1.561737060546875,46.12262344360352,-60.3662109375,2,0
1563194056.960793,26,0,65398.490063875,-1.330777643030461,0.00875814207887194,0.02246392581040405,-0.001767029520124197,0.0001113489270210266,-0.0004318211576901376,0.0006152559071779251,0.0002549067139625549,0.01626521348953247,2,0.01153896003961563,-0.003489323193207383,-0.6172814965248108,0.7866500616073608,0.00875582080334425,-0.02246203646063805,-0.9997093677520752,1.429908752441406,46.10476303100586,-60.546142578125,2,0
1563194057.01524,27,0,65398.525005875,-1.330776577414629,0.008762824969084874,0.02244861798572797,-0.001597172114998102,0.002023134380578995,-0.0002193338004872203,0.0002291034907102585,0.0004532281309366226,0.01243555545806885,2,0.01153438724577427,-0.003482750849798322,-0.6172811388969421,0.7866503596305847,0.008760505355894566,-0.02244673296809196,-0.9997096657752991,1.551223754882812,45.83478927612305,-60.5745849609375,2,0
1563194057.026798,28,0,65398.525005875,-1.330776577414629,0.008762824969084874,0.02244861798572797,-0.001597172114998102,0.002023134380578995,-0.0002193338004872203,0.0002291034907102585,0.0004532281309366226,0.01243555545806885,2,0.01153438724577427,-0.003482750849798322,-0.6172811388969421,0.7866503596305847,0.008760505355894566,-0.02244673296809196,-0.9997096657752991,1.551223754882812,45.83478927612305,-60.5745849609375,2,0
1563194057.069697,29,0,65398.559978875,-1.330750910837432,0.00876973210105352,0.02243748794112256,0.0001542638055980206,0.001096460968255997,-0.0003965275827795267,0.0002832328900694847,0.001006677746772766,0.01449567079544067,2,0.01153218653053045,-0.003476450918242335,-0.6172710657119751,0.7866582870483398,0.008767412044107914,-0.02243560552597046,-0.9997098445892334,1.585716247558594,46.0145378112793,-60.39044189453125,2,0
1563194057.092606,30,0,65398.59491087501,-1.330750963788041,0.008782084595365221,0.02247166774368161,-5.198875442147255e-05,-0.0004240944981575012,8.91310628503561e-06,-0.000186871737241745,0.0007051508873701096,0.01534932851791382,2,0.01154944114387035,-0.003482141997665167,-0.617270827293396,0.7866582870483398,0.008779754862189293,-0.0224697757512331,-0.9997089505195618,1.596847534179688,45.91387557983398,-60.4541015625,2,0
1563194057.129626,31,0,65398.629883875,-1.330770479513177,0.008763710700181605,0.02245774575956226,-0.00263293506577611,-0.001251449808478355,-0.001041693845763803,0.0008080536499619484,0.0004318337887525558,0.01449525356292725,2,0.01153826154768467,-0.00348518555983901,-0.6172786951065063,0.786652147769928,0.008761388249695301,-0.02245585806667805,-0.99970942735672,1.34051513671875,45.80450057983398,-60.50482177734375,2,0
1563194057.158482,32,0,65398.66482587501,-1.330785356148801,0.008729397563709409,0.02248348405978923,0.00146545423194766,-0.002251604571938515,0.0002606762573122978,0.001025457866489887,0.0002897139638662338,0.01473915576934814,2,0.01153776701539755,-0.003506710985675454,-0.6172845959663391,0.7866475582122803,0.008727080188691616,-0.02248159050941467,-0.9997091889381409,1.621452331542969,45.83375930786133,-60.50982666015625,2,0
1563194057.192459,33,0,65398.699798875,-1.330778598939551,0.008735978286344004,0.02250399896220535,0.0008768457919359207,0.0001680143177509308,0.001554226269945502,0.000759487971663475,0.0005390997976064682,0.01507431268692017,2,0.01154787838459015,-0.003510416252538562,-0.6172817945480347,0.7866495847702026,0.008733655326068401,-0.02250210009515285,-0.9997086524963379,1.5604248046875,45.79372024536133,-60.37249755859375,2,0
1563194057.224341,34,0,65398.734711875,-1.330793261897345,0.008738965078516958,0.02254506846202947,0.001976289320737123,0.001340582966804504,-0.0006270083831623197,0.0003292635083198547,0.0003207474946975708,0.01560741662979126,2,0.01156492717564106,-0.003522004233673215,-0.6172873377799988,0.7866448760032654,0.008736632764339447,-0.02254315838217735,-0.9997076988220215,1.439193725585938,45.85182571411133,-60.3919677734375,2,0
1563194057.258419,35,0,65398.76968487501,-1.330787533077696,0.008745582865701143,0.02251623142567538,-0.0001961113885045052,0.0004099942743778229,-0.001395099796354771,0.0004599727690219879,0.0002308916300535202,0.01496714353561401,2,0.01155563816428185,-0.003510466311126947,-0.6172851920127869,0.7866467833518982,0.008743254467844963,-0.02251432836055756,-0.9997082948684692,1.306564331054688,46.13370895385742,-60.236083984375,2,0
1563194057.291426,36,0,65398.804626875,-1.33078684204122,0.008744805060797639,0.02253436383878728,-0.0001869150437414646,-0.0003693234175443649,-0.0002521518035791814,-0.0001038201153278351,0.000722033903002739,0.01206755638122559,2,0.01156253088265657,-0.003516365773975849,-0.6172848343849182,0.7866469025611877,0.008742473088204861,-0.02253245748579502,-0.9997078776359558,1.459228515625,46.01424789428711,-60.54241943359375,2,0
1563194057.324316,37,0,65398.83960087501,-1.33078806501416,0.008730287625661441,0.02253979710181721,0.001255790702998638,-0.0007761642336845398,-0.001097051426768303,0.0009788051247596741,0.0003002174198627472,0.01400542259216309,2,0.01156018488109112,-0.003523760009557009,-0.6172853708267212,0.7866464853286743,0.008727959357202053,-0.02253788895905018,-0.9997078776359558,1.428672790527344,46.04297256469727,-60.496337890625,2,0
1563194057.369036,38,0,65398.874512875,-1.330788614703501,0.008720182454426073,0.02257969665379115,0.003074091393500566,-0.001255303621292114,-0.0001445662928745151,0.0002564918249845505,0.0006605293601751328,0.01675122976303101,2,0.01157275680452585,-0.003540053265169263,-0.617285430431366,0.7866462469100952,0.008717848919332027,-0.02257777750492096,-0.9997071027755737,1.570121765136719,45.9465446472168,-60.43145751953125,2,0
1563194057.390364,39,0,65398.909485875,-1.330807402102145,0.008723488790384752,0.02259959444784815,0.002122719306498766,0.00147593580186367,-0.00106787821277976,-2.146884799003601e-05,3.95551323890686e-05,0.0169948935508728,2,0.01158156991004944,-0.003545004175975919,-0.6172927021980286,0.7866403460502625,0.008721150457859039,-0.02259767055511475,-0.9997066259384155,1.608413696289062,45.84539413452148,-60.4312744140625,2,0
1563194057.429306,40,0,65398.944427875,-1.330798348937135,0.008729052387297478,0.02261930104779856,-0.0002561626024544239,0.0009962320327758789,0.0004025701200589538,-0.0001033209264278412,-0.001466626301407814,0.0133628249168396,2,0.01159105356782675,-0.003548846580088139,-0.6172890067100525,0.7866430878639221,0.008726708590984344,-0.02261737175285816,-0.9997060894966125,1.432472229003906,45.8438835144043,-60.35662841796875,2,0
1563194057.45679,41,0,65398.979401875,-1.330817137264046,0.008704844429694015,0.02262402349479551,0.001345063094049692,-0.002309765666723251,-0.001208028756082058,0.0003786366432905197,0.0003844108432531357,0.01465988159179688,2,0.01158540602773428,-0.003559935139492154,-0.6172965168952942,0.7866371870040894,0.008702507242560387,-0.02262209355831146,-0.9997062087059021,1.500633239746094,45.98354721069336,-60.363525390625,2,0
1563194057.488699,42,0,65399.01431387501,-1.330820847953904,0.008687739848154673,0.02262479073561681,-0.0008237720467150211,-0.0005237124860286713,0.001012033899314702,0.0008840169757604599,9.525567293167114e-05,0.01696407794952393,2,0.01158042158931494,-0.003566920524463058,-0.6172980666160583,0.7866360545158386,0.008685407228767872,-0.02262286096811295,-0.9997063279151917,1.32244873046875,46.04721450805664,-60.40576171875,2,0
1563194057.521945,43,0,65399.049286875,-1.330844054601567,0.008653914789125416,0.02263024522360444,0.0001543508842587471,-0.002144802361726761,-0.001251963665708899,0.0001396238803863525,0.0004974380135536194,0.01545363664627075,2,0.01157208532094955,-0.003582042874768376,-0.6173073649406433,0.786628782749176,0.008651590906083584,-0.02262831293046474,-0.999706506729126,1.505035400390625,46.20267868041992,-60.4932861328125,2,0
1563194057.553925,44,0,65399.08422887501,-1.330844755962714,0.008622675862244947,0.02260315560614273,-0.0005172309465706348,0.0004885233938694,-0.0001298964489251375,0.0006438624113798141,-0.0003078337758779526,0.01319622993469238,2,0.01155178807675838,-0.003585971193388104,-0.6173079609870911,0.7866286039352417,0.008620366454124451,-0.02260123006999493,-0.9997074007987976,1.265083312988281,46.18962478637695,-60.3975830078125,2,0
1563194057.587757,45,0,65399.08422887501,-1.330844755962714,0.008622675862244947,0.02260315560614273,-0.0005172309465706348,0.0004885233938694,-0.0001298964489251375,0.0006438624113798141,-0.0003078337758779526,0.01319622993469238,2,0.01155178807675838,-0.003585971193388104,-0.6173079609870911,0.7866286039352417,0.008620366454124451,-0.02260123006999493,-0.9997074007987976,1.265083312988281,46.18962478637695,-60.3975830078125,2,0
1563194057.619794,46,0,65399.119202875,-1.330843214087013,0.008629844632068361,0.02259284575839365,-0.001464135944843292,0.001310255378484726,0.0005002537509426475,0.000712989829480648,-0.0003028810024261475,0.01405090093612671,2,0.01154994871467352,-0.003579959971830249,-0.6173073649406433,0.7866291403770447,0.008627534843981266,-0.02259092405438423,-0.9997075796127319,1.466056823730469,46.18169021606445,-60.3216552734375,2,0
1563194057.668299,47,0,65399.15414487501,-1.330837589357607,0.008657181306072447,0.02258451330489147,-0.0006881249137222767,0.001728402450680733,0.0007238035323098302,0.0008382536470890045,-0.0005248319357633591,0.01591241359710693,2,0.01155511941760778,-0.003566603641957045,-0.6173050403594971,0.7866309285163879,0.008654865436255932,-0.02258259430527687,-0.9997075200080872,1.520042419433594,46.13200759887695,-60.45843505859375,2,0
1563194057.686204,48,0,65399.189117875,-1.330840397435121,0.008660844841143583,0.02258590671834452,-0.0001841220073401928,0.001421563327312469,-0.00085404422134161,0.0004683816805481911,0.0006209686398506165,0.01470690965652466,2,0.01155679300427437,-0.003565608756616712,-0.617306113243103,0.7866300940513611,0.00865852739661932,-0.02258398570120335,-0.9997074604034424,1.535614013671875,46.04848098754883,-60.3450927734375,2,0
1563194057.729836,49,0,65399.224029875,-1.330857623109111,0.008646531180852787,0.02257611103025588,-0.0003917315043509007,-1.872703433036804e-05,7.384247146546841e-05,0.0002843216061592102,7.712095975875854e-05,0.01412743330001831,2,0.01154849212616682,-0.003568314714357257,-0.617313027381897,0.7866247296333313,0.008644220419228077,-0.02257419377565384,-0.999707818031311,1.407516479492188,45.97466659545898,-60.21173095703125,2,0
1563194057.751668,50,0,65399.25900387501,-1.33085471740703,0.008622621621197356,0.02257687764385135,0.001302312128245831,0.001109512522816658,0.000546347233466804,0.0001861508935689926,0.0005509071052074432,0.01360881328582764,2,0.01154141873121262,-0.003577938070520759,-0.6173120141029358,0.7866256237030029,0.008620317094027996,-0.02257495932281017,-0.9997079968452454,1.371009826660156,45.82340621948242,-60.33599853515625,2,0
1563194057.788764,51,0,65399.293945875,-1.330835381334775,0.008602747195845918,0.02260270555649265,-0.0001810588873922825,-0.0002745967358350754,-0.0005212115938775241,0.0009384434670209885,0.0006682686507701874,0.01464599370956421,2,0.01154547650367022,-0.003593615721911192,-0.6173043847084045,0.7866315245628357,0.008600443601608276,-0.02260078117251396,-0.9997075796127319,1.489753723144531,45.84668350219727,-60.33685302734375,2,0
1563194057.817562,52,0,65399.32891887501,-1.330831049834494,0.008600997084262886,0.02259866905166999,0.0009417985565960407,0.0007680896669626236,-0.0007483290391974151,0.0006197560578584671,0.001122001558542252,0.01627880334854126,2,0.01154335681349039,-0.003593033412471414,-0.6173027157783508,0.7866328358650208,0.008598694577813148,-0.02259674482047558,-0.9997076988220215,1.337181091308594,45.81844711303711,-60.3199462890625,2,0
1563194057.860306,53,0,65399.363830875,-1.330822226820848,0.008609604904722451,0.02260997676936959,0.0002412553876638412,-0.002315456047654152,0.0005489235045388341,0.0001228731125593185,-0.0004230905324220657,0.01441687345504761,2,0.01155047677457333,-0.003593087662011385,-0.6172991394996643,0.7866355180740356,0.008607298135757446,-0.02260805107653141,-0.9997073411941528,1.650962829589844,45.8084831237793,-60.24078369140625,2,0
1563194057.883852,54,0,65399.398804875,-1.330819525659608,0.008596122792433212,0.02260274542331502,-0.0002106460742652416,-0.001856714487075806,-0.00091997638810426,0.0004873005673289299,5.7954341173172e-05,0.01498174667358398,2,0.01154347602277994,-0.003596141934394836,-0.6172981858253479,0.7866364121437073,0.008593820966780186,-0.0226008202880621,-0.9997076392173767,1.622055053710938,45.76892471313477,-60.32269287109375,2,0
1563194057.917512,55,0,65399.433746875,-1.330813305383767,0.008606937853348741,0.02261315955894866,0.001199086662381887,2.956017851829529e-06,0.0003664282849058509,0.0001255422830581665,2.258457243442535e-05,0.01556128263473511,2,0.01155092101544142,-0.003595066955313087,-0.6172956228256226,0.7866383194923401,0.008604630827903748,-0.0226112324744463,-0.9997072815895081,1.509765625,45.75949478149414,-60.35906982421875,2,0
1563194057.949365,56,0,65399.468719875,-1.330807770090533,0.008599355674011551,0.02262786468689866,-1.617055386304855e-05,-0.001130396500229836,-0.0005989440251141787,0.0001941565424203873,0.0006476342678070068,0.01585090160369873,2,0.01155437435954809,-0.003602556884288788,-0.6172934174537659,0.786639928817749,0.008597047999501228,-0.02262593433260918,-0.999707043170929,1.390762329101562,45.72271347045898,-60.4095458984375,2,0
1563194057.983288,57,0,65399.50363187501,-1.33080477369904,0.008594261901542541,0.02262526252620236,0.0003580264747142792,0.0004819314926862717,-0.001482464140281081,-0.0004568798467516899,0.0009502097964286804,0.01539325714111328,2,0.01155178435146809,-0.003603740129619837,-0.6172922849655151,0.7866408228874207,0.008591956458985806,-0.0226233322173357,-0.9997071623802185,1.415641784667969,45.9848747253418,-60.2255859375,2,0
1563194058.027208,58,0,65399.538605875,-1.330810690259877,0.008600740442619067,0.02262923762899114,-0.001075847074389458,-0.0002274960279464722,-0.001152613200247288,0.0004674317315220833,0.0002522785216569901,0.01371461153030396,2,0.01155533641576767,-0.003602452808991075,-0.6172945499420166,0.7866390347480774,0.008598431944847107,-0.02262730710208416,-0.9997069835662842,1.394851684570312,45.83103561401367,-60.2501220703125,2,0
1563194058.049204,59,0,65399.57354787501,-1.330824322025946,0.008599479418936091,0.0226304788796558,-0.001730208285152912,0.0007519014179706573,-4.783691838383675e-05,0.000606020912528038,3.989599645137787e-05,0.01437073945999146,2,0.01155541092157364,-0.00360341090708971,-0.6172999143600464,0.7866348028182983,0.008597171865403652,-0.02262854762375355,-0.9997069835662842,1.430648803710938,45.99768447875977,-60.2545166015625,2,0
1563194058.088828,60,0,65399.6085085,-1.330810056931385,0.008628347689003496,0.02263206073290389,0.0005053533241152763,-0.0001825690269470215,0.002142219105735421,-0.0003230972215533257,-6.533414125442505e-05,0.01520967483520508,2,0.01156496908515692,-0.003592462744563818,-0.6172941327095032,0.7866392135620117,0.008626030758023262,-0.02263012900948524,-0.9997066855430603,1.510322570800781,45.92167282104492,-60.16815185546875,2,0
1563194058.11511,61,0,65399.6434215,-1.330817718168413,0.008629113886502207,0.0226603775275135,-0.0001991773024201393,3.32314521074295e-05,0.0004868602845817804,0.0003475304692983627,0.0003596954047679901,0.01624661684036255,2,0.0115763284265995,-0.003600946627557278,-0.6172969937324524,0.7866367697715759,0.008626791648566723,-0.02265843749046326,-0.9997060298919678,1.765731811523438,46.04636001586914,-60.1585693359375,2,0
1563194058.15191,62,0,65399.6434215,-1.330817718168413,0.008629113886502207,0.0226603775275135,-0.0001991773024201393,3.32314521074295e-05,0.0004868602845817804,0.0003475304692983627,0.0003596954047679901,0.01624661684036255,2,0.0115763284265995,-0.003600946627557278,-0.6172969937324524,0.7866367697715759,0.008626791648566723,-0.02265843749046326,-0.9997060298919678,1.765731811523438,46.04636001586914,-60.1585693359375,2,0
1563194058.181206,63,0,65399.67839450001,-1.330816042732082,0.008609350648421528,0.02266978011203787,0.001021444331854582,0.0005503073334693909,-0.001380498870275915,0.0005503883585333824,-0.0001649633049964905,0.01494961977005005,2,0.01157392933964729,-0.003611612366512418,-0.6172963976860046,0.7866372466087341,0.008607031777501106,-0.02266783826053143,-0.9997060298919678,1.685798645019531,45.85000228881836,-60.11737060546875,2,0
1563194058.213052,64,0,65399.7133365,-1.330862693199928,0.008614273747600786,0.02268506593432538,-0.001606855541467667,0.001099521294236183,-0.00236790650524199,0.0002402933314442635,0.0006742924451828003,0.01351487636566162,2,0.01158137619495392,-0.003614664543420076,-0.6173146367073059,0.7866228222846985,0.008611951023340225,-0.02268311940133572,-0.9997056126594543,1.67547607421875,46.08916854858398,-60.103515625,2,0
1563194058.246942,65,0,65399.74830950001,-1.330854311363813,0.008586546730557563,0.02272335319619678,0.0009055985137820244,-0.0001035891473293304,0.0004955752519890666,0.0009546596556901932,-0.0002029668539762497,0.01471972465515137,2,0.01158789079636335,-0.00363734015263617,-0.6173112988471985,0.7866252660751343,0.008584224618971348,-0.02272139862179756,-0.9997049570083618,1.82208251953125,45.97482681274414,-60.20648193359375,2,0
1563194058.278918,66,0,65399.7832225,-1.330855942101514,0.008597990750802137,0.02271945155991211,-0.0005560307763516903,0.0003583543002605438,0.0007270773639902472,0.0009737387299537659,-0.0003441981971263885,0.01610821485519409,2,0.01158988568931818,-0.003631644183769822,-0.6173118948936462,0.7866247892379761,0.008595665916800499,-0.02271749638020992,-0.9997049570083618,1.568946838378906,45.79024887084961,-60.2442626953125,2,0
1563194058.329643,67,0,65399.8181955,-1.330860367895055,0.008604938399888209,0.02271470794524186,-0.0009198714978992939,-0.0002234913408756256,-0.000495737767778337,-0.0006658956408500671,0.0001240801066160202,0.01528429985046387,2,0.01159015670418739,-0.003627473255619407,-0.6173136234283447,0.7866234183311462,0.008602612651884556,-0.02271275408565998,-0.9997050166130066,1.653373718261719,45.93829727172852,-60.25762939453125,2,0
1563194058.34494,68,0,65399.8531375,-1.330869290439641,0.008644133868326192,0.02270461523937581,-0.0006696796044707298,0.000868525356054306,0.0004298394778743386,0.001049689948558807,9.873323142528534e-05,0.01311743259429932,2,0.01159826945513487,-0.003608993720263243,-0.6173169612884521,0.7866207361221313,0.008641798049211502,-0.0227026641368866,-0.999704897403717,1.581779479980469,45.72990798950195,-60.287841796875,2,0
1563194058.389042,69,0,65399.8881105,-1.330864204567979,0.008672487456046929,0.02268835975867622,-0.0005237096920609474,-0.0007767770439386368,0.001251903362572193,0.0001973751932382584,0.0004792138934135437,0.01342278718948364,2,0.01160063687711954,-0.003592793829739094,-0.617314875125885,0.7866224646568298,0.008670146577060223,-0.02268641255795956,-0.9997050166130066,1.683120727539062,45.8256950378418,-60.31304931640625,2,0
1563194058.410878,70,0,65399.9230535,-1.33084956516583,0.008694318053794715,0.02268108137606473,0.0001708520576357841,0.003505244851112366,-0.000458075141068548,-0.0004805736243724823,0.0007465928792953491,0.01566576957702637,2,0.01160453911870718,-0.003581876400858164,-0.617309033870697,0.7866269946098328,0.008691972121596336,-0.02267913706600666,-0.9997050166130066,1.713233947753906,45.86867141723633,-60.1820068359375,2,0
1563194058.455558,71,0,65399.9580265,-1.330854260111689,0.008691882503271929,0.02268412207746046,-0.000344857107847929,0.001699717715382576,0.0004589207237586379,0.0004831645637750626,0.000764891505241394,0.01636761426925659,2,0.0116049749776721,-0.003583800513297319,-0.6173108816146851,0.7866255044937134,0.008689536713063717,-0.02268217690289021,-0.9997049570083618,1.775543212890625,45.95803451538086,-60.153564453125,2,0
1563194058.47669,72,0,65399.99293850001,-1.330849965419073,0.008718418248607404,0.02268498497334182,0.00119398720562458,0.0002920050173997879,-0.0002985497121699154,0.0005787136033177376,0.0003385096788406372,0.01426166296005249,2,0.0116135124117136,-0.00357360509224236,-0.617309033870697,0.7866268754005432,0.008716064505279064,-0.0226830393075943,-0.9997047185897827,1.505805969238281,45.8621940612793,-60.2452392578125,2,0
1563194058.517312,73,0,65400.0279115,-1.330849219125968,0.008690382816393246,0.02266988231603883,-0.0005662087351083755,-0.0002520196139812469,0.001046204124577343,0.00155277643352747,-0.0005615968257188797,0.01313310861587524,2,0.01159892044961452,-0.003579964628443122,-0.6173089742660522,0.7866271734237671,0.00868804007768631,-0.02266794070601463,-0.9997053146362305,1.580375671386719,45.93318557739258,-60.1075439453125,2,0
1563194058.542517,74,0,65400.06285450001,-1.330828636160086,0.008694500516462483,0.0226575335923571,-0.0004991623573005199,-0.0002042260020971298,-1.163454726338387e-06,0.0003889882937073708,0.0006009936332702637,0.01592570543289185,2,0.01159537211060524,-0.003574414644390345,-0.6173009276390076,0.7866334915161133,0.008692159317433834,-0.02265559509396553,-0.9997055530548096,1.576004028320312,45.89410781860352,-60.3017578125,2,0
1563194058.5765,75,0,65400.0978275,-1.330838254934453,0.008705574871671853,0.02263742830469442,-0.001701018773019314,0.002286272123456001,-0.0001961651141755283,-7.984600961208344e-05,0.0007029660046100616,0.015239417552948,2,0.01159086544066668,-0.003563907463103533,-0.6173047423362732,0.7866306900978088,0.008703234605491161,-0.02263549529016018,-0.9997059106826782,1.501976013183594,46.07785415649414,-60.28143310546875,2,0
1563194058.608418,76,0,65400.1327395,-1.330846855353673,0.008694557521334519,0.02262489760665949,-0.0001313216052949429,0.0005718916654586792,-0.0009135923464782536,0.0008314307779073715,-0.0002098251134157181,0.01472097635269165,2,0.0115825217217207,-0.003564422950148582,-0.6173082590103149,0.7866280078887939,0.008692222647368908,-0.02262296713888645,-0.9997062683105469,1.625747680664062,45.80118942260742,-60.2342529296875,2,0
1563194058.642447,77,0,65400.16771350001,-1.330841914125803,0.008682552656676815,0.02260735130681566,-0.001767071895301342,0.0001712292432785034,-0.001098752720281482,0.001026533544063568,6.254948675632477e-05,0.01449263095855713,2,0.01157192420214415,-0.003563699079677463,-0.6173064708709717,0.7866296172142029,0.008680225349962711,-0.02260542474687099,-0.9997068047523499,1.546295166015625,45.97356033325195,-60.30804443359375,2,0
1563194058.698397,78,0,65400.2026555,-1.330829375720405,0.008673952892029609,0.02260802195356116,-0.001389506738632917,0.0001182090491056442,0.0005304262740537524,0.0007299520075321198,-0.0005318708717823029,0.0140196681022644,2,0.0115695558488369,-0.003567215753719211,-0.6173015832901001,0.7866334915161133,0.008671627379953861,-0.02260609529912472,-0.9997068643569946,1.635040283203125,45.83279800415039,-60.3043212890625,2,0
1563194058.708311,79,0,65400.23762850001,-1.330829972699355,0.008662741354723729,0.02264361734763445,0.0008494439534842968,0.0003886595368385315,-0.0002724681980907917,-0.0005405750125646591,0.0003276802599430084,0.0145835280418396,2,0.01158009376376867,-0.00358261726796627,-0.6173017024993896,0.7866331338882446,0.008660412393510342,-0.02264168299734592,-0.9997061491012573,1.513267517089844,46.14535903930664,-60.25732421875,2,0
1563194058.745949,80,0,65400.23762850001,-1.330829972699355,0.008662741354723729,0.02264361734763445,0.0008494439534842968,0.0003886595368385315,-0.0002724681980907917,-0.0005405750125646591,0.0003276802599430084,0.0145835280418396,2,0.01158009376376867,-0.00358261726796627,-0.6173017024993896,0.7866331338882446,0.008660412393510342,-0.02264168299734592,-0.9997061491012573,1.513267517089844,46.14535903930664,-60.25732421875,2,0
1563194058.774206,81,0,65400.2725405,-1.330842475880896,0.008685428019625576,0.02263600934284237,0.0007846411317586899,0.00156005285680294,0.001438993378542364,0.0009626299142837524,0.0005184356123209,0.0153006911277771,2,0.01158408168703318,-0.003571418346837163,-0.6173065304756165,0.786629319190979,0.008683093823492527,-0.02263407595455647,-0.9997060894966125,1.470977783203125,46.02266311645508,-60.32110595703125,2,0
1563194058.810254,82,0,65400.3075145,-1.330833799346292,0.008688426755039136,0.02263978873220984,0.001026181504130363,-0.001384131610393524,0.0008070124313235283,0.0003340225666761398,0.0009342022240161896,0.01465970277786255,2,0.01158650871366262,-0.003571354551240802,-0.6173030734062195,0.7866320610046387,0.00868609081953764,-0.02263785526156425,-0.999705970287323,1.67913818359375,45.92047500610352,-60.322021484375,2,0
1563194058.840167,83,0,65400.3424565,-1.330823948474351,0.008686629908197095,0.0226546344062534,-0.0008252807892858982,0.00116165354847908,-0.0003050589584745467,0.0004426324740052223,0.0007964558899402618,0.0136827826499939,2,0.01159181073307991,-0.003576587652787566,-0.6172991394996643,0.7866349816322327,0.008684291504323483,-0.02265269681811333,-0.9997056722640991,1.704055786132812,46.17901992797852,-60.340576171875,2,0
1563194058.872141,84,0,65400.3774295,-1.330838739285045,0.00864955732032621,0.02265716984983668,-0.00122118042781949,-0.002956615760922432,-0.002426739782094955,0.0004186499863862991,-0.0003759358078241348,0.01414084434509277,2,0.01158133894205093,-0.003592037362977862,-0.6173051595687866,0.7866303324699402,0.00864722952246666,-0.02265523187816143,-0.9997059106826782,1.6082763671875,45.96719741821289,-60.3677978515625,2,0
1563194058.906068,85,0,65400.41234150001,-1.330818865844637,0.008643432268344218,0.02263904886916655,-0.001542813610285521,0.0009560436010360718,-0.0003195142489857972,-0.0001245494931936264,0.0005672592669725418,0.0147668719291687,2,0.01157235726714134,-0.003588737454265356,-0.6172974705696106,0.7866365313529968,0.008641109801828861,-0.02263711579144001,-0.9997063875198364,1.455253601074219,46.12491226196289,-60.27386474609375,2,0
1563194058.938032,86,0,65400.4473155,-1.330835313782774,0.008638442598679795,0.02262810663785059,-0.0006485991179943085,-0.0001442413777112961,-0.001154309720732272,0.0003229398280382156,0.0001595932990312576,0.01554536819458008,2,0.01156648434698582,-0.003587417537346482,-0.6173040270805359,0.7866314649581909,0.00863612350076437,-0.02262617647647858,-0.9997066855430603,1.658218383789062,46.04932022094727,-60.44635009765625,2,0
1563194058.989417,87,0,65400.48225750001,-1.330865039480844,0.008649177221745947,0.02265245185616861,0.001013994216918945,0.001227239146828651,-0.001440533902496099,-0.000328652560710907,8.214265108108521e-07,0.01375949382781982,2,0.01157931890338659,-0.003590882755815983,-0.6173155307769775,0.7866222262382507,0.008646850474178791,-0.02265051379799843,-0.9997060298919678,1.498992919921875,45.9942741394043,-60.35284423828125,2,0
1563194059.003968,88,0,65400.5172305,-1.330890737365699,0.008619566946341563,0.02266923238975882,6.317300722002983e-05,-0.001501599326729774,-0.002377317752689123,0.0005859546363353729,0.0003532860428094864,0.013957679271698,2,0.01157673262059689,-0.003607857739552855,-0.6173257231712341,0.7866141796112061,0.008617245592176914,-0.02266729064285755,-0.9997059106826782,1.309158325195312,46.2703742980957,-60.3118896484375,2,0
1563194059.053565,89,0,65400.5521425,-1.330906064398355,0.008630287957803798,0.02263441129023536,0.0003208303824067116,-0.001006748527288437,0.0006988380337134004,0.0002547986805438995,0.0006541740149259567,0.0157589316368103,2,0.01156631950289011,-0.00359297962859273,-0.617331862449646,0.7866096496582031,0.008627969771623611,-0.02263247780501842,-0.9997066259384155,1.546783447265625,45.88727951049805,-60.39752197265625,2,0
1563194059.069944,90,0,65400.58713925,-1.330902722026482,0.00859081618180718,0.02263323225477311,0.0003199232742190361,-0.001271910965442657,-0.0009352721972391009,0.000965634360909462,0.000302046537399292,0.01527100801467896,2,0.01155367866158485,-0.003608121536672115,-0.61733078956604,0.7866105437278748,0.008588510565459728,-0.02263130061328411,-0.9997069835662842,1.455543518066406,45.97662734985352,-60.437255859375,2,0
1563194059.113825,91,0,65400.62208125,-1.330893275746675,0.008547357162250835,0.02264341769464183,-1.237215474247932e-05,0.0004102829843759537,8.351844735443592e-05,0.0006428612396121025,-0.0001607947051525116,0.01470661163330078,2,0.01154428720474243,-0.003628303995355964,-0.6173272728919983,0.7866133451461792,0.008545061573386192,-0.02264148369431496,-0.9997071027755737,1.66583251953125,45.8824348449707,-60.39776611328125,2,0
1563194059.135665,92,0,65400.65705425,-1.330911538101284,0.008546186658262287,0.02263744999801752,-0.002470139414072037,0.003306327387690544,-0.001197049976326525,0.001284901052713394,0.0008708331733942032,0.01453888416290283,2,0.01154154539108276,-0.003627026686444879,-0.6173344850540161,0.7866078019142151,0.00854389276355505,-0.02263551577925682,-0.9997072815895081,1.510467529296875,45.66009902954102,-60.3995361328125,2,0
1563194059.170004,93,0,65400.69199725,-1.330914723655954,0.008546609204572991,0.022637814630075,-0.001424387097358704,-0.0007910542190074921,-0.00118152191862464,0.0009945621713995934,-0.0004563219845294952,0.01379120349884033,2,0.01154181361198425,-0.00362699176184833,-0.6173357367515564,0.7866067886352539,0.008544315584003925,-0.02263588085770607,-0.9997072815895081,1.514068603515625,45.88888168334961,-60.5382080078125,2,0
1563194059.201629,94,0,65400.72697025001,-1.330906370000495,0.008554238422616503,0.0226159434453948,0.001217666082084179,0.0004192031919956207,-0.0004125457489863038,0.0004528742283582687,0.0007577836513519287,0.01460033655166626,2,0.0115355821326375,-0.003617190988734365,-0.6173325181007385,0.7866094708442688,0.008551946841180325,-0.02261401526629925,-0.9997076988220215,1.669944763183594,45.79162216186523,-60.55487060546875,2,0
1563194059.235491,95,0,65400.76188225,-1.330895206734278,0.008547981625250445,0.02262687456713698,-0.002836656291037798,0.0002626720815896988,8.429819718003273e-05,0.0007948223501443863,0.0002804268151521683,0.01432549953460693,2,0.01153797004371881,-0.003622961929067969,-0.6173281073570251,0.786612868309021,0.008545689284801483,-0.02262494340538979,-0.9997075200080872,1.651390075683594,46.08380508422852,-60.42095947265625,2,0
1563194059.267651,96,0,65400.79685525,-1.33090426177698,0.00854466774760488,0.0226145305561169,0.000943284947425127,-0.001176571473479271,-3.376440145075321e-05,0.001133829355239868,0.0002223048359155655,0.01449364423751831,2,0.01153207570314407,-0.003620506031438708,-0.6173317432403564,0.7866101861000061,0.0085423793643713,-0.02261260338127613,-0.999707818031311,1.426383972167969,45.99865341186523,-60.629150390625,2,0
1563194059.301423,97,0,65400.83179825,-1.330880362369215,0.00854132618933265,0.02260148742382179,-0.0001020249910652637,0.0003606807440519333,0.001645562704652548,0.001091388985514641,0.0009722132235765457,0.01365470886230469,2,0.011525958776474,-0.003617657581344247,-0.6173224449157715,0.7866174578666687,0.008539040572941303,-0.02259956300258636,-0.9997081160545349,1.511848449707031,46.02612686157227,-60.42315673828125,2,0
1563194059.349053,98,0,65400.83179825,-1.330880362369215,0.00854132618933265,0.02260148742382179,-0.0001020249910652637,0.0003606807440519333,0.001645562704652548,0.001091388985514641,0.0009722132235765457,0.01365470886230469,2,0.011525958776474,-0.003617657581344247,-0.6173224449157715,0.7866174578666687,0.008539040572941303,-0.02259956300258636,-0.9997081160545349,1.511848449707031,46.02612686157227,-60.42315673828125,2,0
1563194059.367499,99,0,65400.86677125,-1.330888719799607,0.008507644857766939,0.02261750314127863,0.001101479399949312,-0.0005266498774290085,0.0002461735857650638,0.0005147028714418411,0.0003015734255313873,0.01395982503890991,2,0.0115218460559845,-0.00363589683547616,-0.6173258423805237,0.7866147756576538,0.008505366742610931,-0.02261557430028915,-0.9997080564498901,1.62420654296875,45.87544631958008,-60.28765869140625,2,0
1563194059.409177,100,0,65400.90168325001,-1.330866880084572,0.008521533472810573,0.02263599126589735,-0.000692964531481266,0.001602122560143471,0.0008637532591819763,0.0007754862308502197,0.00083884596824646,0.01476800441741943,2,0.01153344381600618,-0.003636016044765711,-0.6173170804977417,0.7866214513778687,0.008519247174263,-0.02263405732810497,-0.9997075200080872,1.518074035644531,45.87092971801758,-60.44049072265625,2,0
1563194059.433452,101,0,65400.93665625001,-1.330867224288432,0.00850280247244301,0.0226364853309729,0.001283848192542791,-0.000197291374206543,0.001032671891152859,0.001099382527172565,6.11431896686554e-05,0.01417309045791626,2,0.01152785588055849,-0.003643537405878305,-0.6173173189163208,0.7866213321685791,0.008500522002577782,-0.02263455279171467,-0.9997076392173767,1.382736206054688,45.8912239074707,-60.44012451171875,2,0
1563194059.47813,102,0,65400.97159925001,-1.330872451040293,0.008506332752948232,0.02266210086282656,1.459522172808647e-05,-0.000109545886516571,-0.0001310281222686172,0.0007449071854352951,0.0007123574614524841,0.01408088207244873,2,0.01153901033103466,-0.003650086931884289,-0.6173192262649536,0.7866196036338806,0.008504046127200127,-0.0226601604372263,-0.999707043170929,1.43597412109375,45.94088363647461,-60.56976318359375,2,0
1563194059.499297,103,0,65401.00657225001,-1.330869237809515,0.008499880776258408,0.02267800295622632,-0.000146214384585619,0.000564252957701683,0.0005224456544965506,0.0008886884897947311,0.0005756579339504242,0.01421791315078735,2,0.01154327858239412,-0.003657514695078135,-0.6173179149627686,0.786620557308197,0.008497592993080616,-0.02267605997622013,-0.9997067451477051,1.482261657714844,45.9356575012207,-60.4737548828125,2,0
1563194059.531213,104,0,65401.04148425,-1.33088179153365,0.008523977063572949,0.02267117556492357,1.30985863506794e-05,0.000981990247964859,0.0006238059140741825,0.0005899462848901749,0.000126328319311142,0.01424837112426758,2,0.01154800783842802,-0.003646001685410738,-0.6173227429389954,0.7866168022155762,0.008521683514118195,-0.0226692333817482,-0.9997066855430603,1.32696533203125,46.1856803894043,-60.38629150390625,2,0
1563194059.565116,105,0,65401.07645725,-1.330876987887523,0.008545165094216631,0.02266251173522028,0.0001758560538291931,-0.000156063586473465,0.0001204706495627761,0.0003856625407934189,0.0002244804054498672,0.01466041803359985,2,0.0115511491894722,-0.003634965978562832,-0.6173207759857178,0.7866183519363403,0.008542866446077824,-0.02266057208180428,-0.9997067451477051,1.365043640136719,45.83865737915039,-60.489013671875,2,0
1563194059.597061,106,0,65401.11140025,-1.330867640971924,0.008545219059011153,0.02266641150154151,0.0007806941866874695,-0.0003098491579294205,0.0006453788373619318,0.0001719854772090912,0.0002436395734548569,0.0137142539024353,2,0.01155271660536528,-0.003636094741523266,-0.6173170804977417,0.7866212129592896,0.008542920462787151,-0.02266447059810162,-0.9997066259384155,1.414718627929688,45.7819938659668,-60.2840576171875,2,0
1563194059.631914,107,0,65401.14637325001,-1.330846187055845,0.008523625907766945,0.02267144298394087,-0.0003005885519087315,-0.001344975084066391,0.0003698894288390875,0.00123116560280323,0.00163721852004528,0.01449251174926758,2,0.01154806930571795,-0.003646016353741288,-0.6173087358474731,0.7866278290748596,0.008521332405507565,-0.02266950160264969,-0.9997066855430603,1.366416931152344,46.14864730834961,-60.43072509765625,2,0
1563194059.663726,108,0,65401.18128525,-1.330849941028203,0.008533232898010773,0.02268151277291267,0.001136109232902527,-0.0001866668462753296,0.001496546319685876,-0.0002890527248382568,0.0004265774041414261,0.0159112811088562,2,0.01155498810112476,-0.003645368153229356,-0.617310106754303,0.7866266369819641,0.00853093434125185,-0.02267956733703613,-0.9997063875198364,1.490142822265625,45.91211318969727,-60.51214599609375,2,0
1563194059.709998,109,0,65401.21625825,-1.330850510437142,0.008509340936517085,0.02265986416821779,-0.001744315959513187,-0.00257406197488308,-0.0006579848704859614,-0.0003567300736904144,-0.0002969652414321899,0.01540845632553101,2,0.01153909880667925,-0.003648085985332727,-0.6173105835914612,0.7866264581680298,0.00850705336779356,-0.02265792526304722,-0.9997071027755737,1.491310119628906,45.99554824829102,-60.546142578125,2,0
1563194059.729041,110,0,65401.25120125,-1.330850198184124,0.008526463880341407,0.02266307427921275,-0.001042769756168127,0.004242952913045883,-0.001470804098062217,-0.0004196204245090485,-0.0001106522977352142,0.0145537257194519,2,0.01154564693570137,-0.003642340423539281,-0.6173103451728821,0.7866265773773193,0.008524171076714993,-0.02266113460063934,-0.9997068643569946,1.375068664550781,46.05836868286133,-60.5615234375,2,0
1563194059.775248,111,0,65401.28617425,-1.3308409260135,0.008543703897348398,0.02268803649364446,-0.00111682340502739,-0.001011267304420471,0.0001751957461237907,0.000753338448703289,0.0004483591765165329,0.0137137770652771,2,0.01156080234795809,-0.003643211908638477,-0.6173064708709717,0.7866293787956238,0.008541401475667953,-0.02268609032034874,-0.9997061491012573,1.385536193847656,45.97816848754883,-60.39434814453125,2,0
1563194059.794681,112,0,65401.32111725,-1.330835338330943,0.008569284585251578,0.02268503849241427,-0.0004152823239564896,0.001590842381119728,0.00036367226857692,0.0005751820281147957,-0.0001344680786132812,0.01559048891067505,2,0.01156752929091454,-0.003632193431258202,-0.6173041462898254,0.7866311073303223,0.00856697466224432,-0.02268309332430363,-0.999705970287323,1.384147644042969,46.0107307434082,-60.49163818359375,2,0
1563194059.830575,113,0,65401.35609025,-1.330846952292685,0.008584902323252772,0.02269638429119342,0.0005167084746062756,-0.0005884785205125809,0.0002144370228052139,0.0004527652636170387,0.0001973025500774384,0.01572740077972412,2,0.01157679036259651,-0.003629619488492608,-0.6173085570335388,0.7866275906562805,0.008582585491240025,-0.02269443497061729,-0.9997056126594543,1.402587890625,45.98293685913086,-60.417236328125,2,0
1563194059.860498,114,0,65401.39100225001,-1.330834881729553,0.008569996745622803,0.02269539198977607,-0.00081639364361763,-0.000669822096824646,-9.146868251264095e-06,-0.0004478665068745613,0.0006388183683156967,0.01473575830459595,2,0.01157182175666094,-0.003635106608271599,-0.6173039078712463,0.7866312265396118,0.008567685261368752,-0.0226934440433979,-0.9997057318687439,1.421134948730469,45.77212905883789,-60.6107177734375,2,0
1563194059.89474,115,0,65401.39100225001,-1.330834881729553,0.008569996745622803,0.02269539198977607,-0.00081639364361763,-0.000669822096824646,-9.146868251264095e-06,-0.0004478665068745613,0.0006388183683156967,0.01473575830459595,2,0.01157182175666094,-0.003635106608271599,-0.6173039078712463,0.7866312265396118,0.008567685261368752,-0.0226934440433979,-0.9997057318687439,1.421134948730469,45.77212905883789,-60.6107177734375,2,0
1563194059.926599,116,0,65401.42597525001,-1.330828016836161,0.008584485903643751,0.02268661348300218,-1.48378312587738e-05,0.0004405230283737183,7.121474482119083e-05,0.001551810652017593,0.0001722816377878189,0.01299631595611572,2,0.01157285366207361,-0.003626657882705331,-0.6173011660575867,0.7866334319114685,0.008582171052694321,-0.02268466725945473,-0.9997058510780334,1.186210632324219,45.72736740112305,-60.65521240234375,2,0
1563194059.96048,117,0,65401.46091825001,-1.330826270458633,0.008593093665095898,0.02269387137332434,0.0005705407820641994,0.0008673816919326782,-0.0007343947072513402,0.0002004355192184448,0.001003509387373924,0.01378953456878662,2,0.01157836802303791,-0.00362550257705152,-0.6173003911972046,0.7866339683532715,0.008590775541961193,-0.02269192412495613,-0.9997056126594543,1.528045654296875,46.01938247680664,-60.38751220703125,2,0
1563194059.993424,118,0,65401.49589125,-1.330812079395463,0.008602572430366448,0.0227210121152319,0.0002709915861487389,0.000783940777182579,0.001228070468641818,0.0004045888781547546,0.0005728751420974731,0.01398718357086182,2,0.01159199327230453,-0.003630069782957435,-0.6172946095466614,0.7866383194923401,0.008600246161222458,-0.02271905727684498,-0.999704897403717,1.435211181640625,45.83743667602539,-60.3101806640625,2,0
1563194060.026992,119,0,65401.53080325,-1.330803850630013,0.008607203749578868,0.02271264124227937,0.001025040168315172,0.001104541122913361,-0.0003247392014600337,-0.0001035816967487335,0.0005187336355447769,0.01471978425979614,2,0.0115901455283165,-0.003625616664066911,-0.6172913908958435,0.7866408824920654,0.008604877628386021,-0.02271068841218948,-0.9997050762176514,1.627822875976562,45.95100784301758,-60.3076171875,2,0
1563194060.075376,120,0,65401.56577625001,-1.330794469308886,0.008616255980033065,0.02270286376297614,0.0006566839292645454,0.0005738567560911179,0.001522341393865645,0.001245401799678802,0.0006768070161342621,0.01507085561752319,2,0.0115891108289361,-0.003618983319029212,-0.6172876954078674,0.7866438627243042,0.008613929152488708,-0.02270091325044632,-0.9997051954269409,1.561134338378906,45.88682174682617,-60.315185546875,2,0
1563194060.09241,121,0,65401.60070204167,-1.330795670888255,0.008631677736315475,0.02270890969120845,-0.0003238548524677753,-3.473833203315735e-06,-0.0004845088697038591,-0.0003721863031387329,2.672895789146423e-05,0.01534527540206909,2,0.0115962466225028,-0.003614791436120868,-0.6172880530357361,0.7866434454917908,0.008629345335066319,-0.02270695753395557,-0.999704897403717,1.369010925292969,45.9998664855957,-60.4443359375,2,0
1563194060.12875,122,0,65401.63567504167,-1.330769490610003,0.008629547262153736,0.02271429249948958,-0.0001898366026580334,-0.002058131620287895,-0.0006637503975071013,0.001125305891036987,0.001313848420977592,0.01484161615371704,2,0.01159775350242853,-0.003617139300331473,-0.6172777414321899,0.7866514921188354,0.008627214469015598,-0.0227123387157917,-0.9997048377990723,1.431076049804688,45.96448135375977,-60.53155517578125,2,0
1563194060.158324,123,0,65401.67058704167,-1.33077210830049,0.008639018916673381,0.02269510290294753,9.346567094326019e-05,5.791708827018738e-05,-0.0002740066265687346,1.720339059829712e-05,0.0004554353654384613,0.01464360952377319,2,0.01159312482923269,-0.003607505466789007,-0.6172788143157959,0.7866507768630981,0.008636686950922012,-0.02269315533339977,-0.9997051954269409,1.313827514648438,46.05820846557617,-60.47259521484375,2,0
1563194060.190265,124,0,65401.70556004167,-1.330800121737343,0.008670893995576105,0.02268046334637842,-0.001519711688160896,0.002669878304004669,-0.000211492064408958,0.000549917109310627,-7.799640297889709e-05,0.01476573944091797,2,0.01159715466201305,-0.003590611508116126,-0.6172897219657898,0.7866422533988953,0.008668554946780205,-0.02267851866781712,-0.9997052550315857,1.583427429199219,45.9137077331543,-60.588623046875,2,0
1563194060.224729,125,0,65401.74050304167,-1.330813179148446,0.008648889908297269,0.0226737809671187,-0.0007324870675802231,-0.0007940363138914108,0.0003395479870960116,3.784894943237305e-05,0.0006782673299312592,0.01410996913909912,2,0.01158771198242903,-0.003597279777750373,-0.6172950267791748,0.7866381406784058,0.008646558970212936,-0.02267183735966682,-0.9997055530548096,1.441581726074219,45.90633010864258,-60.43194580078125,2,0
1563194060.25636,126,0,65401.77547604167,-1.330812661119159,0.00864711954760824,0.02268262001656979,-0.0008026012219488621,0.001200659200549126,-0.0002856384962797165,0.001458685845136642,0.0008702091872692108,0.01447594165802002,2,0.01159064285457134,-0.003600701689720154,-0.6172947883605957,0.7866382598876953,0.008644787594676018,-0.02268067561089993,-0.9997053742408752,1.532821655273438,45.85188674926758,-60.62713623046875,2,0
1563194060.291861,127,0,65401.81038804167,-1.330811019003312,0.008675507080480723,0.02268736544144353,0.001095300540328026,0.001573691144585609,0.0005806387634947896,0.001109883189201355,-0.0006204098463058472,0.01409411430358887,2,0.01160127390176058,-0.003590991720557213,-0.6172939538955688,0.7866387963294983,0.008673165924847126,-0.02268541976809502,-0.9997050166130066,1.699317932128906,45.96280288696289,-60.59283447265625,2,0
1563194060.322082,128,0,65401.84536104167,-1.330817109647788,0.008687402777154097,0.02270902568596945,0.001124907284975052,-0.001210706308484077,-0.0006267728749662638,0.0001824712380766869,-0.0001867767423391342,0.01580250263214111,2,0.01161345280706882,-0.003593033645302057,-0.6172961592674255,0.7866369485855103,0.008685053326189518,-0.02270707301795483,-0.9997044205665588,1.423904418945312,45.79926681518555,-60.55328369140625,2,0
1563194060.370316,129,0,65401.88030404167,-1.330825986217557,0.008727148644152676,0.0227072056972156,0.0005596396513283253,0.001253226771950722,-0.0004972749156877398,0.0004326626658439636,0.0009100399911403656,0.01494771242141724,2,0.01162498909980059,-0.003576891496777534,-0.6172994375228882,0.7866342067718506,0.008724788203835487,-0.02270525507628918,-0.999704122543335,1.583053588867188,46.04024124145508,-60.45166015625,2,0
1563194060.387979,130,0,65401.91527704167,-1.330818961316037,0.008773657455154391,0.02268435994436251,-0.001653133425861597,0.002780240029096603,-0.0003966956865042448,0.001530585810542107,-4.358589649200439e-05,0.01369661092758179,2,0.01163037121295929,-0.003551505040377378,-0.6172965168952942,0.7866365909576416,0.008771287277340889,-0.02268241532146931,-0.9997042417526245,1.3756103515625,45.95415115356445,-60.567138671875,2,0
1563194060.431516,131,0,65401.95018904167,-1.330812124464996,0.008783528978561436,0.02267131372737051,0.0005566691979765892,0.001496901735663414,-0.000273232173640281,0.0008645877242088318,0.001255631446838379,0.01474970579147339,2,0.01162829902023077,-0.003543555038049817,-0.6172938346862793,0.7866387963294983,0.008781159296631813,-0.02266937121748924,-0.9997044801712036,1.577056884765625,45.88605880737305,-60.42059326171875,2,0
1563194060.454419,132,0,65401.95018904167,-1.330812124464996,0.008783528978561436,0.02267131372737051,0.0005566691979765892,0.001496901735663414,-0.000273232173640281,0.0008645877242088318,0.001255631446838379,0.01474970579147339,2,0.01162829902023077,-0.003543555038049817,-0.6172938346862793,0.7866387963294983,0.008781159296631813,-0.02266937121748924,-0.9997044801712036,1.577056884765625,45.88605880737305,-60.42059326171875,2,0
1563194060.490332,133,0,65401.98516204167,-1.330826050452353,0.008790554408710663,0.02266407373873263,-0.0002998975105583668,0.0002951379865407944,4.53372485935688e-05,-0.0004089148715138435,0.0003176126629114151,0.01423096656799316,2,0.01162759587168694,-0.003538638819009066,-0.6172993183135986,0.7866344451904297,0.008788183331489563,-0.02266213297843933,-0.9997045397758484,1.4859619140625,45.91484451293945,-60.79229736328125,2,0
1563194060.51975,134,0,65402.02010504167,-1.330858637077186,0.008810121274215736,0.02265446167663054,4.827603697776794e-05,-0.001395408064126968,-0.0008180646691471338,0.0008685234934091568,0.0003842990845441818,0.01447516679763794,2,0.01162979751825333,-0.003528165398165584,-0.6173120737075806,0.7866244316101074,0.008807746693491936,-0.02265252359211445,-0.9997045993804932,1.541633605957031,45.85436630249023,-60.6317138671875,2,0
1563194060.553866,135,0,65402.05507804167,-1.33086281307371,0.008788616563639114,0.02263856974202612,-0.001242235768586397,0.0003774706274271011,0.0002993488451465964,-0.0001018103212118149,0.0002921242266893387,0.01375854015350342,2,0.0116169024258852,-0.003531741676852107,-0.6173139214515686,0.7866231799125671,0.00878625176846981,-0.02263663522899151,-0.9997051358222961,1.283050537109375,46.10430526733398,-60.69549560546875,2,0
1563194060.585659,136,0,65402.09002104167,-1.330860425783565,0.008827182578870293,0.02262177028969754,-0.0004238472320139408,0.001067545264959335,-8.16417159512639e-05,-0.0006286371499300003,-2.984330058097839e-05,0.01458257436752319,2,0.01162220351397991,-0.003511373652145267,-0.6173128485679626,0.786624014377594,0.008824809454381466,-0.02261984162032604,-0.9997051954269409,1.331275939941406,46.10586929321289,-60.772705078125,2,0
1563194060.619987,137,0,65402.12499404167,-1.330857166656885,0.008830626456101595,0.02261044149493438,0.0006718076765537262,0.000247124582529068,0.0005413778126239777,0.001366820186376572,0.0007980614900588989,0.01647490262985229,2,0.01161881629377604,-0.003506502136588097,-0.6173115968704224,0.7866251468658447,0.008828254416584969,-0.02260851487517357,-0.99970543384552,1.61761474609375,45.92838668823242,-60.59979248046875,2,0
1563194060.669117,138,0,65402.15990604167,-1.330852404765381,0.008836893186789313,0.02263250072734693,0.001277063973248005,0.001004563644528389,-0.0001223876606673002,0.0005213292315602303,0.0003318283706903458,0.01484167575836182,2,0.01162943430244923,-0.003510819049552083,-0.6173095703125,0.7866265773773193,0.008834514766931534,-0.02263056859374046,-0.9997048377990723,1.528388977050781,46.08423233032227,-60.6845703125,2,0
1563194060.685478,139,0,65402.19487904167,-1.330830501660579,0.008846077203035435,0.02262755398521834,-0.001199212856590748,0.000137941911816597,-9.823020081967115e-05,0.0009088777005672455,0.0005252473056316376,0.01359045505523682,2,0.01163036189973354,-0.003505552420392632,-0.6173009276390076,0.7866333723068237,0.008843697607517242,-0.02262562327086926,-0.999704897403717,1.535682678222656,45.84766006469727,-60.5108642578125,2,0
1563194060.733799,140,0,65402.22982204167,-1.330835459882057,0.008867698483899915,0.02261372248677842,0.0004099328070878983,0.001510338857769966,-0.0003441507578827441,-0.0005318038165569305,0.0001452155411243439,0.01461291313171387,2,0.01163158752024174,-0.003492808667942882,-0.6173028349876404,0.7866318225860596,0.008865315467119217,-0.02261179499328136,-0.9997050166130066,1.282638549804688,45.89418411254883,-60.48236083984375,2,0
1563194060.751393,141,0,65402.26479504167,-1.3308470042268,0.008882185149224226,0.02261079232284398,-0.0006851600483059883,-0.0005233772099018097,-0.0004379941965453327,0.0008422667160630226,-0.0002544410526752472,0.01355999708175659,2,0.01163488626480103,-0.003486273344606161,-0.6173073053359985,0.7866283059120178,0.008879797533154488,-0.02260886505246162,-0.9997049570083618,1.557670593261719,45.86986923217773,-60.86279296875,2,0
1563194060.784984,142,0,65402.29970704167,-1.330834447513854,0.008859626707435949,0.0225804211562274,-0.001405397895723581,0.0006634965538978577,0.0001615973887965083,0.0005443710833787918,0.0004781447350978851,0.01221811771392822,2,0.01161600090563297,-0.003485697554424405,-0.6173026561737061,0.786632239818573,0.008857252076268196,-0.02257850207388401,-0.9997058510780334,1.619308471679688,46.06443405151367,-60.637939453125,2,0
1563194060.817436,143,0,65402.33468004167,-1.330835553058758,0.008851586329515297,0.02262536512049578,-0.0007452969439327717,0.0001114774495363235,9.359279647469521e-05,0.0003693131729960442,0.0003399550914764404,0.01117956638336182,2,0.0116311926394701,-0.003502739360556006,-0.6173028945922852,0.7866318225860596,0.008849205449223518,-0.02262343466281891,-0.999704897403717,1.526969909667969,45.80651473999023,-60.6663818359375,2,0
1563194060.851514,144,0,65402.36962304167,-1.330817273455707,0.008867460386445345,0.02260221828566731,0.00227364432066679,0.001543059945106506,0.001337765017524362,-5.854666233062744e-05,0.0002710465341806412,0.01781755685806274,2,0.0116270212456584,-0.003489245194941759,-0.6172957420349121,0.7866374850273132,0.008865078911185265,-0.02260029315948486,-0.9997052550315857,1.605461120605469,46.06872940063477,-60.47198486328125,2,0
1563194060.883154,145,0,65402.40459604167,-1.330826476272069,0.008840507451233357,0.022548404257081,7.793866097927094e-05,-0.001572256907820702,-0.0002133506932295859,0.0002888143062591553,0.001117531210184097,0.01704078912734985,2,0.01159752160310745,-0.003483287524431944,-0.6172997951507568,0.7866348028182983,0.008838145062327385,-0.02254649437963963,-0.9997067451477051,1.540695190429688,46.08822250366211,-60.6446533203125,2,0
1563194060.915232,146,0,65402.43950804167,-1.330833283893242,0.008821820307548446,0.02248742473539892,-0.001440779305994511,-0.0005773622542619705,1.084024552255869e-05,0.001604476943612099,-0.0005913674831390381,0.01415842771530151,2,0.01156775932759047,-0.003471852745860815,-0.6173028945922852,0.7866328954696655,0.008819475769996643,-0.0224855300039053,-0.9997082948684692,1.413619995117188,46.22778701782227,-60.74578857421875,2,0
1563194060.949131,147,0,65402.47448104167,-1.330858711414899,0.008774455951350242,0.02242436358937348,-0.0009223581291735172,0.0002166032791137695,-0.0006102650659158826,-0.0005454644560813904,0.001344509422779083,0.01576238870620728,2,0.01152829546481371,-0.003471162868663669,-0.6173135042190552,0.7866250872612,0.008772137574851513,-0.02242248505353928,-0.9997100830078125,1.438232421875,45.97983169555664,-60.7293701171875,2,0
1563194060.981103,148,0,65402.50942404167,-1.330866665027641,0.008762163330071376,0.02242018856134193,0.0005398523062467575,-0.001082107424736023,-0.0006160535267554224,0.0004433821886777878,-0.0003381296992301941,0.01260405778884888,2,0.01152284536510706,-0.003474754514172673,-0.617316722869873,0.7866226434707642,0.008759848773479462,-0.02241831086575985,-0.9997103214263916,1.562118530273438,45.96565628051758,-60.52783203125,2,0
1563194061.029262,149,0,65402.54439704167,-1.33086824602592,0.008762479427607661,0.02241351085933052,0.001861248631030321,0.0006050337105989456,-0.0005952700157649815,0.002289379015564919,0.006994675844907761,0.01530498266220093,2,0.01152031403034925,-0.003472578013315797,-0.6173173785209656,0.786622166633606,0.008760166354477406,-0.02241163514554501,-0.9997104406356812,1.674972534179688,46.04475021362305,-60.66473388671875,2,0
1563194061.047679,150,0,65402.54439704167,-1.33086824602592,0.008762479427607661,0.02241351085933052,0.001861248631030321,0.0006050337105989456,-0.0005952700157649815,0.002289379015564919,0.006994675844907761,0.01530498266220093,2,0.01152031403034925,-0.003472578013315797,-0.6173173785209656,0.786622166633606,0.008760166354477406,-0.02241163514554501,-0.9997104406356812,1.674972534179688,46.04475021362305,-60.66473388671875,2,0
1563194061.089828,151,0,65402.57931141667,-1.330855990994763,0.008758702515264795,0.02243012781399702,0.001243534963577986,-0.001106243580579758,-0.000492075749207288,0.002750921063125134,0.007270682603120804,0.01239025592803955,2,0.01152570452541113,-0.003479122184216976,-0.617312490940094,0.7866259217262268,0.008756387047469616,-0.02242824621498585,-0.9997100830078125,1.363883972167969,45.79165267944336,-60.63177490234375,2,0
1563194061.113025,152,0,65402.61428441667,-1.330835855020402,0.008738845106085552,0.02244111729547869,-0.000401174183934927,-0.0004643518477678299,0.002417693845927715,-2.158712595701218e-05,0.00297868624329567,0.011505126953125,2,0.01152393221855164,-0.003490208182483912,-0.6173046231269836,0.7866321206092834,0.008736533112823963,-0.02243923395872116,-0.9997100234031677,1.419868469238281,46.01189804077148,-60.79193115234375,2,0
1563194061.156925,153,0,65402.64922741667,-1.330831207095978,0.008746254449418052,0.02244807883097784,0.0002536261454224586,0.00254952535033226,0.001878095325082541,-0.0006088251248002052,-0.002003982663154602,0.01582318544387817,2,0.01152896508574486,-0.003489416092634201,-0.6173027157783508,0.7866335511207581,0.008743938989937305,-0.02244619280099869,-0.9997097849845886,1.542396545410156,46.05169296264648,-60.6719970703125,2,0
1563194061.17887,154,0,65402.68420041667,-1.33084150324996,0.008782561261063389,0.02243080019129256,0.0002796771004796028,0.0009764302521944046,-0.0002154319081455469,-0.001026587560772896,-0.001685552299022675,0.01701343059539795,2,0.01153335813432932,-0.003469862043857574,-0.617306649684906,0.7866304516792297,0.008780239149928093,-0.02242891862988472,-0.9997099041938782,1.420318603515625,45.8038215637207,-60.64678955078125,2,0
1563194061.212728,155,0,65402.71911241667,-1.330836355616836,0.008831012713696556,0.0223890629616354,-0.001627319492399693,0.00425354391336441,0.0009259023936465383,-8.319877088069916e-05,-0.0004607886075973511,0.01628148555755615,2,0.01153190713375807,-0.003437891835346818,-0.6173045635223389,0.786632239818573,0.008828684687614441,-0.02238719165325165,-0.9997103810310364,1.652336120605469,45.9601936340332,-60.62054443359375,2,0
1563194061.244758,156,0,65402.75408541667,-1.3308403463417,0.008866073320111672,0.02238881352658616,0.001410043798387051,0.0008050817996263504,-0.001031634979881346,0.00159074179828167,-0.0004915520548820496,0.01351934671401978,2,0.01154262386262417,-0.003424048190936446,-0.6173059344291687,0.7866310477256775,0.008863735012710094,-0.0223869439214468,-0.9997100830078125,1.62689208984375,45.97544479370117,-60.87542724609375,2,0
1563194061.278626,157,0,65402.78902841667,-1.330842869303694,0.008869312853440862,0.02238166164874554,-0.00164395896717906,0.001532958820462227,0.0002028727903962135,-0.000182516872882843,8.113309741020203e-05,0.01286333799362183,2,0.01154080685228109,-0.003420581109821796,-0.6173069477081299,0.7866302728652954,0.008866975083947182,-0.0223797932267189,-0.9997102022171021,1.931510925292969,46.20017623901367,-60.8236083984375,2,0
1563194061.311949,158,0,65402.82400141667,-1.330857003199599,0.008891925199529978,0.02240457541276257,0.001256549265235662,0.0006526261568069458,-0.0004419594770297408,0.0001000650227069855,0.0007906779646873474,0.0157008171081543,2,0.0115567734465003,-0.003418841864913702,-0.6173122525215149,0.7866259217262268,0.00888957642018795,-0.02240270189940929,-0.9997094869613647,1.603042602539062,46.12973403930664,-60.763671875,2,0
1563194061.344731,159,0,65402.85894441667,-1.330855081703923,0.008893592990809112,0.02240628699441001,0.001359932124614716,-0.0003876332193613052,2.750183921307325e-05,0.0008003022521734238,0.0001210011541843414,0.01562446355819702,2,0.01155796460807323,-0.003418703097850084,-0.6173114776611328,0.7866265177726746,0.008891243487596512,-0.02240441180765629,-0.99970942735672,1.556228637695312,45.88347244262695,-60.81463623046875,2,0
1563194061.389745,160,0,65402.89388641667,-1.330859179425953,0.008888071784622248,0.02243589106873088,0.0009716185741126537,-0.001768626272678375,0.0004245990421622992,0.0002870280295610428,0.001096636056900024,0.01278567314147949,2,0.01156789623200893,-0.003430037060752511,-0.6173129677772522,0.7866251468658447,0.008885717950761318,-0.02243400923907757,-0.9997088313102722,1.47216796875,45.94247817993164,-60.93719482421875,2,0
1563194061.410987,161,0,65402.92882941667,-1.330880850012579,0.008861592831557425,0.02242043758402946,0.00184963084757328,-0.0008233431726694107,-0.001515459502115846,-0.0002053100615739822,0.0005471296608448029,0.01646363735198975,2,0.01155360881239176,-0.003435806836932898,-0.6173217296600342,0.7866184115409851,0.008859249763190746,-0.0224185585975647,-0.99970942735672,1.473274230957031,46.07760238647461,-60.76715087890625,2,0
1563194061.456328,162,0,65402.96380241667,-1.330889248773023,0.008864620481242577,0.02240941257153054,-0.0005024522542953491,-0.003360062837600708,-0.0003155120648443699,0.0001883916556835175,0.0006886925548315048,0.01765406131744385,2,0.01155019272118807,-0.003431260585784912,-0.6173250675201416,0.7866159081459045,0.008862278424203396,-0.0224075373262167,-0.9997096657752991,1.509819030761719,46.0277214050293,-60.69610595703125,2,0
1563194061.476492,163,0,65402.99874541667,-1.330883409704312,0.00884710200833533,0.02241091250969851,-0.0001950827427208424,-0.001523321494460106,-0.0009942150209099054,0.0002364199608564377,-0.0005762875080108643,0.0116574764251709,2,0.0115453852340579,-0.003438579849898815,-0.6173228621482849,0.7866176962852478,0.008844764903187752,-0.02240903675556183,-0.9997097849845886,1.728485107421875,45.89629745483398,-60.64422607421875,2,0
1563194061.510344,164,0,65403.03371841667,-1.330882010006326,0.008826702582832271,0.0223849421549654,-0.0001724641770124435,-0.0004693754017353058,-0.0007980861701071262,-1.785531640052795e-05,-2.240948379039764e-05,0.01322990655899048,2,0.01152887754142284,-0.003438577987253666,-0.617322564125061,0.786618173122406,0.00882437638938427,-0.0223830733448267,-0.9997105002403259,1.276237487792969,45.57468032836914,-60.6961669921875,2,0
1563194061.542257,165,0,65403.06863041667,-1.330891339820997,0.008846873961963509,0.02238106025639016,-0.0009578834287822247,-0.00039658322930336,-0.001287889201194048,-0.0008467333391308784,0.0003551822155714035,0.01522868871688843,2,0.01153356116265059,-0.003429500153288245,-0.6173261404037476,0.7866153120994568,0.008844543248414993,-0.0223791915923357,-0.9997104406356812,1.593887329101562,45.9402961730957,-60.85577392578125,2,0
1563194061.574362,166,0,65403.10360341667,-1.330898538010892,0.008856318814650136,0.02239930648409791,0.0004347944632172585,5.782768130302429e-05,-0.0009922479512169957,0.0005171205848455429,0.0006938539445400238,0.01519769430160522,2,0.01154363993555307,-0.003431459655985236,-0.6173288226127625,0.7866130471229553,0.008853981271386147,-0.02239743433892727,-0.9997099637985229,1.5125732421875,45.82580184936523,-60.89306640625,2,0
1563194061.608286,167,0,65403.13854641667,-1.330901575856178,0.008828723378755347,0.02239564202598366,-0.002135768067091703,-0.001238998025655746,-0.000142069417051971,0.001155052334070206,-0.000622062012553215,0.0137789249420166,2,0.01153367571532726,-0.003441199194639921,-0.6173301935195923,0.7866120934486389,0.008826394565403461,-0.02239377051591873,-0.9997102618217468,1.629150390625,45.74678421020508,-60.83917236328125,2,0
1563194061.642645,168,0,65403.13854641667,-1.330901575856178,0.008828723378755347,0.02239564202598366,-0.002135768067091703,-0.001238998025655746,-0.000142069417051971,0.001155052334070206,-0.000622062012553215,0.0137789249420166,2,0.01153367571532726,-0.003441199194639921,-0.6173301935195923,0.7866120934486389,0.008826394565403461,-0.02239377051591873,-0.9997102618217468,1.629150390625,45.74678421020508,-60.83917236328125,2,0
1563194061.695188,169,0,65403.17351941667,-1.330907012735155,0.0088457443559387,0.02237573958619659,-0.000268460251390934,-1.475401222705841e-05,1.940864603966475e-05,0.0007718252018094063,-1.084059476852417e-06,0.01385551691055298,2,0.01153109315782785,-0.00342839234508574,-0.6173323392868042,0.78661048412323,0.008843414485454559,-0.0223738718777895,-0.9997105598449707,1.587112426757812,46.00287246704102,-60.72674560546875,2,0
1563194061.706449,170,0,65403.20843141667,-1.330886146627914,0.008819631005062882,0.02238629630626984,-0.000180704053491354,-0.0002154931426048279,0.0009621006902307272,-0.0002244152128696442,0.0009707752615213394,0.01350456476211548,2,0.0115272207185626,-0.003441801993176341,-0.6173242330551147,0.7866168022155762,0.008817306719720364,-0.02238442562520504,-0.9997105598449707,1.549751281738281,45.79121780395508,-60.68084716796875,2,0
1563194061.750869,171,0,65403.24340441667,-1.330894916326174,0.008829025846429936,0.02240845145490228,0.0001567024737596512,-0.0002120379358530045,-0.0004310680087655783,0.0004833638668060303,0.000718260183930397,0.01528924703598022,2,0.01153881847858429,-0.003444996662437916,-0.6173275113105774,0.7866140604019165,0.008826694451272488,-0.02240657620131969,-0.9997099637985229,1.667884826660156,45.75043869018555,-60.7081298828125,2,0
1563194061.772056,172,0,65403.27834741667,-1.330912301918499,0.008830205289022022,0.02243773676832435,0.002089262939989567,0.0006041526794433594,-0.0004266956239007413,0.0009704725816845894,0.0009611546993255615,0.0174095630645752,2,0.01155066955834627,-0.003453673329204321,-0.6173341870307922,0.7866086363792419,0.008827867917716503,-0.02243585325777531,-0.9997093081474304,1.57879638671875,45.73160934448242,-60.82855224609375,2,0
1563194061.80995,173,0,65403.31332041667,-1.33089914320271,0.008841387758992457,0.02245000242921063,0.0003707022406160831,-0.0003250204026699066,0.0005092581268399954,0.001066107302904129,-0.0001252181828022003,0.01695144176483154,2,0.0115589676424861,-0.003452985547482967,-0.6173288822174072,0.7866126894950867,0.008839044719934464,-0.02244811691343784,-0.9997089505195618,1.642189025878906,46.01362991333008,-60.66424560546875,2,0
1563194061.838356,174,0,65403.34823241667,-1.330909183870202,0.008832893622268275,0.0224863305899399,0.001363276969641447,-0.0006330516189336777,-0.001305946847423911,0.0002811495214700699,0.001223348081111908,0.01406681537628174,2,0.01157061569392681,-0.00346759962849319,-0.6173326969146729,0.786609411239624,0.008830545470118523,-0.02248443476855755,-0.9997081756591797,1.468818664550781,46.04249954223633,-60.802978515625,2,0
1563194061.877225,175,0,65403.38320541667,-1.330890474252429,0.008829640683228154,0.02250726083139474,-0.0005798111669719219,0.0003048721700906754,0.0008488289313390851,-0.0005090544000267982,-0.0002816095948219299,0.01057207584381104,2,0.01157787535339594,-0.003475231816992164,-0.6173252463340759,0.7866151332855225,0.008827289566397667,-0.02250535972416401,-0.9997077584266663,1.421585083007812,45.97978591918945,-60.81756591796875,2,0
1563194061.903839,176,0,65403.41814841667,-1.329413796343066,0.008817041245691624,0.02249836351155609,-0.002876242157071829,0.00272236205637455,0.1316083818674088,-0.03272302448749542,0.004546530544757843,0.01479905843734741,2,0.01157305110245943,-0.003468895796686411,-0.6167443990707397,0.7870708107948303,0.008814695291221142,-0.02249646559357643,-0.9997080564498901,1.439407348632812,45.98229598999023,-60.68511962890625,2,0
1563194061.937836,177,0,65403.45312141667,-1.314311407830749,0.00861729865954089,0.02248776144961243,-0.00463034538552165,0.0009157117456197739,0.4153754115104675,0.02396464347839355,-0.01284382119774818,0.01287847757339478,2,0.01153371948748827,-0.003457238897681236,-0.6107847690582275,0.7917050719261169,0.008615013211965561,-0.02248586528003216,-0.9997100234031677,1.874565124511719,46.15669631958008,-60.69561767578125,2,0
1563194061.971349,178,0,65403.48803341667,-1.309726144280858,0.007746424463780288,0.0221635940378802,-0.009111189283430576,-0.02581962570548058,0.1369213163852692,0.05669534951448441,-0.003234362229704857,0.02131563425064087,2,0.01114790607243776,-0.003677416825667024,-0.6089746356010437,0.7931028604507446,0.007744444534182549,-0.02216177992522717,-0.9997243881225586,1.98797607421875,46.08788681030273,-60.60797119140625,2,0
1563194062.003799,179,0,65403.52300641667,-1.304286124722066,0.004448395380362534,0.02077368957530045,-0.0527072548866272,-0.1123534590005875,0.1673241704702377,-0.001837058924138546,-0.0001375265419483185,0.01164573431015015,2,0.00960491131991148,-0.004535891581326723,-0.6068384647369385,0.7947542667388916,0.004447421059012413,-0.02077219635248184,-0.9997743368148804,1.996665954589844,46.32395553588867,-60.5103759765625,2,0
1563194062.053551,180,0,65403.55794941667,-1.297845620597615,-0.0002512197217964638,0.0187103831648647,-0.04140939190983772,-0.09547679871320724,0.1589189171791077,0.03020411543548107,0.0319797694683075,0.02008867263793945,2,0.007377595640718937,-0.00575359957292676,-0.6043030023574829,0.7966997027397156,-0.000251175748417154,-0.01870929077267647,-0.9998249411582947,1.710678100585938,46.3918342590332,-60.56231689453125,2,0
1563194062.069654,181,0,65403.59293562501,-1.292936930970056,-0.004251904364684319,0.01697859254903339,-0.05494808778166771,-0.1199105903506279,0.1170881986618042,0.01339023187756538,-0.03267855942249298,0.009032666683197021,2,0.005495630670338869,-0.006810541264712811,-0.6023625731468201,0.7981746792793274,-0.004251278936862946,-0.01697777770459652,-0.9998468160629272,1.292198181152344,46.33642196655273,-60.97967529296875,2,0
1563194062.112285,182,0,65403.627847625,-1.289873223782019,-0.01263864478072614,0.01325405561943556,-0.1517431437969208,-0.3487010300159454,0.07959131896495819,-0.022018663585186,0.004446039907634258,-0.007003605365753174,2,0.001497026067227125,-0.009033580310642719,-0.6011560559272766,0.7990791201591492,-0.01263719797134399,-0.01325366739183664,-0.9998323321342468,0.203826904296875,46.60805892944336,-61.1622314453125,2,0
1563194062.135801,183,0,65403.662820625,-1.290675300991479,-0.01597672349423188,0.009808439265601892,-0.08926639705896378,-0.03281056135892868,-0.04451308771967888,-0.005879299715161324,-0.02496894635260105,0.01760083436965942,2,-0.0008868124568834901,-0.009331357665359974,-0.6014730930328369,0.7988380789756775,-0.01597527600824833,-0.009808282367885113,-0.9998242855072021,-0.02170562744140625,46.7413215637207,-61.28375244140625,2,0
1563194062.175683,184,0,65403.697763625,-1.293477030060186,-0.02092568242212712,0.007277516594414161,-0.06372660398483276,-0.1593957245349884,-0.09991069138050079,0.01438761688768864,0.006131226196885109,0.009306669235229492,2,-0.003400855232030153,-0.01054224092513323,-0.602580189704895,0.7979814410209656,-0.02092360146343708,-0.007277452386915684,-0.9997546076774597,-0.3744735717773438,46.74765396118164,-61.2755126953125,2,0
1563194062.201459,185,0,65403.697763625,-1.293477030060186,-0.02092568242212712,0.007277516594414161,-0.06372660398483276,-0.1593957245349884,-0.09991069138050079,0.01438761688768864,0.006131226196885109,0.009306669235229492,2,-0.003400855232030153,-0.01054224092513323,-0.602580189704895,0.7979814410209656,-0.02092360146343708,-0.007277452386915684,-0.9997546076774597,-0.3744735717773438,46.74765396118164,-61.2755126953125,2,0
1563194062.233911,186,0,65403.732736625,-1.297511069682502,-0.02558960828577546,0.005122457637706337,-0.06177780777215958,-0.1152209118008614,-0.1249180138111115,-0.0006192605942487717,-0.003957826644182205,0.02138811349868774,2,-0.005689611658453941,-0.01174240652471781,-0.6041699051856995,0.7967487573623657,-0.02558648027479649,-0.00512243527919054,-0.9996594786643982,-0.7275238037109375,46.87652206420898,-61.10791015625,2,0
1563194062.267301,187,0,65403.767679625,-1.303884707220827,-0.03033470699032825,0.003428002654430522,-0.04914739727973938,-0.1801044642925262,-0.2306814938783646,-0.005612153559923172,0.01839601062238216,0.004218637943267822,2,-0.00783983152359724,-0.01309597119688988,-0.6066815257072449,0.7947984337806702,-0.03032987751066685,-0.003427995834499598,-0.9995340704917908,-1.252830505371094,47.11861801147461,-60.72064208984375,2,0
1563194062.299294,188,0,65403.802652625,-1.312640066678918,-0.03456001039542256,0.002285875583811743,-0.02688637748360634,-0.08325528353452682,-0.2017681747674942,0.002531468868255615,-0.03985947370529175,0.03367161750793457,2,-0.009638475254178047,-0.01438659802079201,-0.610129714012146,0.7921122312545776,-0.03455303981900215,-0.002285873517394066,-0.99940025806427,-1.571205139160156,47.19153213500977,-59.98736572265625,2,0
1563194062.357594,189,0,65403.83756462501,-1.318812190667019,-0.03765798935025616,0.00196614558779962,-0.01506072841584682,-0.08515386283397675,-0.1832201331853867,-0.008655562996864319,0.008740553632378578,0.01203036308288574,2,-0.01075801067054272,-0.01548289693892002,-0.6125532984733582,0.7902044057846069,-0.03764901682734489,-0.001966144423931837,-0.9992890954017639,-1.455886840820312,47.6608772277832,-60.07025146484375,2,0
1563194062.365311,190,0,65403.872537625,-1.328213532113902,-0.04148435784524783,0.001796051408721306,-0.01844086498022079,-0.1326832473278046,-0.3324884474277496,-0.007472917437553406,0.01009638234972954,-0.0006481409072875977,2,-0.01207663025707006,-0.01688600145280361,-0.6162378191947937,0.7872864603996277,-0.04147239401936531,-0.00179605046287179,-0.9991380572319031,-1.988487243652344,47.40805435180664,-59.36688232421875,2,0
1563194062.411622,191,0,65403.90748062501,-1.340846083058974,-0.04701561563318751,0.002208391861623351,0.008843409828841686,-0.1558888405561447,-0.3760280311107635,-0.0159560814499855,-0.007573045790195465,0.02385616302490234,2,-0.01373949553817511,-0.01910391077399254,-0.6211658120155334,0.7833257913589478,-0.04699818044900894,-0.002208390040323138,-0.9988925457000732,-2.522598266601562,47.48895645141602,-58.70428466796875,2,0
1563194062.431119,192,0,65403.942453625,-1.350567059375642,-0.05109843907451941,0.003247510130162034,0.02586633339524269,-0.1092510223388672,-0.1519153118133545,0.02274283766746521,-0.05838355422019958,0.01788538694381714,2,-0.01470255851745605,-0.0209544375538826,-0.6249461770057678,0.7802481055259705,-0.05107593536376953,-0.0032475043553859,-0.9986894726753235,-2.78076171875,47.35748672485352,-57.71209716796875,2,0
1563194062.47219,193,0,65403.977365625,-1.349646712794463,-0.05311059953101107,0.004075655472381972,0.02023063041269779,-0.04740936309099197,0.04151657223701477,-0.001569792628288269,0.01089530624449253,0.01139938831329346,2,-0.01499808114022017,-0.02200506068766117,-0.6245800852775574,0.7805065512657166,-0.05308519303798676,-0.004075644072145224,-0.9985816478729248,-2.911430358886719,47.28754043579102,-57.77880859375,2,0
1563194062.497113,194,0,65404.01233862501,-1.348153702074046,-0.05374299827090894,0.003998203397162683,-0.008723101578652859,-0.001321196556091309,0.03337233886122704,0.008872967213392258,0.001006470993161201,0.01833921670913696,2,-0.01520920358598232,-0.02223903127014637,-0.6239917278289795,0.7809662818908691,-0.05371670052409172,-0.003998192958533764,-0.9985482096672058,-2.95562744140625,47.37564468383789,-57.7431640625,2,0
1563194062.531501,195,0,65404.047281625,-1.3444881466892,-0.05317079304571796,0.003133535470503217,-0.02537214569747448,0.02393572777509689,0.1551814675331116,-0.01130567491054535,0.01176922023296356,0.01289498805999756,2,-0.01532846223562956,-0.02177398279309273,-0.622555136680603,0.782122790813446,-0.05314548313617706,-0.003133530262857676,-0.9985818862915039,-2.767745971679688,47.56882858276367,-57.890625,2,0
1563194062.562845,196,0,65404.08225462501,-1.33850554131954,-0.0524721440018804,0.001768052489241162,-0.03104653581976891,0.01436122879385948,0.1612335443496704,-0.01403242349624634,-0.008684661239385605,0.01206541061401367,2,-0.01558190118521452,-0.02112246304750443,-0.6202045679092407,0.7840007543563843,-0.05244798585772514,-0.001768051530234516,-0.9986221194267273,-2.621383666992188,47.47617721557617,-57.9996337890625,2,0
1563194062.596896,197,0,65404.117166625,-1.332398988142882,-0.05168085812125565,-0.0001732522173854927,-0.05591696873307228,0.02816038206219673,0.1839834600687027,-0.007467649877071381,0.02280652895569801,0.009468376636505127,2,-0.01603575609624386,-0.02025934867560863,-0.6177945137023926,0.7859149575233459,-0.05165785551071167,0.0001732522214297205,-0.9986648559570312,-2.371856689453125,47.94363021850586,-58.14874267578125,2,0
1563194062.628755,198,0,65404.152139625,-1.329060273405122,-0.05240885739307114,-0.002171928588666829,-0.05401818081736565,-0.0804610475897789,0.03943537548184395,0.009723290801048279,-0.01282201893627644,-0.01379567384719849,2,-0.01701271720230579,-0.01995645463466644,-0.6164548397064209,0.7869534492492676,-0.05238474532961845,0.002171926898881793,-0.9986246228218079,-2.2979736328125,47.85769271850586,-58.2952880859375,2,0
1563194062.663223,199,0,65404.187082625,-1.326020035895379,-0.05731321584466736,-0.003988107263712209,-0.04481064528226852,-0.2394140660762787,0.02803375013172626,-0.009154494851827621,0.09087679535150528,-0.00819551944732666,2,-0.01920641772449017,-0.02135555446147919,-0.6151930093765259,0.7878531217575073,-0.05728138983249664,0.003988096490502357,-0.9983500838279724,-2.374534606933594,47.91829299926758,-58.1695556640625,2,0
1563194062.713483,200,0,65404.222055625,-1.329042545371355,-0.06696137393158517,-0.006252194924724031,-0.06948632746934891,-0.2100920379161835,-0.0134234381839633,0.01833979785442352,-0.06203671917319298,0.03365916013717651,2,-0.02310250885784626,-0.02442462369799614,-0.6162513494491577,0.7868316173553467,-0.0669100359082222,0.006252154242247343,-0.9977394342422485,-2.85125732421875,48.12763595581055,-57.69842529296875,2,0
1563194062.728605,201,0,65404.25696762501,-1.32903373859657,-0.07231781584718064,-0.008600411343680813,-0.05854147672653198,-0.2070859223604202,-0.04784931614995003,0.02331431210041046,0.03653734922409058,0.0003712177276611328,2,-0.02567633055150509,-0.02580825798213482,-0.6161476969718933,0.7867888808250427,-0.07225212454795837,0.008600305765867233,-0.9973493218421936,-2.929931640625,48.51208114624023,-57.29278564453125,2,0
1563194062.776203,202,0,65404.25696762501,-1.32903373859657,-0.07231781584718064,-0.008600411343680813,-0.05854147672653198,-0.2070859223604202,-0.04784931614995003,0.02331431210041046,0.03653734922409058,0.0003712177276611328,2,-0.02567633055150509,-0.02580825798213482,-0.6161476969718933,0.7867888808250427,-0.07225212454795837,0.008600305765867233,-0.9973493218421936,-2.929931640625,48.51208114624023,-57.29278564453125,2,0
1563194062.794711,203,0,65404.29194062501,-1.331138491557097,-0.08120266634617603,-0.01035870807684066,-0.04548337310552597,-0.2557117342948914,-0.02230408042669296,-0.007854700088500977,-0.009791355580091476,0.01767885684967041,2,-0.02913490869104862,-0.02873076498508453,-0.6168244481086731,0.7860364317893982,-0.08110910654067993,0.01035852264612913,-0.9966514110565186,-3.493972778320312,48.87405776977539,-56.92291259765625,2,0
1563194062.834074,204,0,65404.32688362501,-1.331835542493189,-0.08970753687091075,-0.01164957009585099,-0.03936705738306046,-0.2280821353197098,-0.03096044808626175,-0.00536617636680603,-0.01709377393126488,0.02386653423309326,2,-0.0322757363319397,-0.03166354075074196,-0.616943895816803,0.7857072949409485,-0.08958118408918381,0.01164930686354637,-0.9959114193916321,-3.944671630859375,48.72825241088867,-56.62420654296875,2,0
1563194062.861046,205,0,65404.361856625,-1.333646082639502,-0.09328862373635934,-0.0128116963270273,-0.03572100028395653,0.01041153632104397,-0.04651101306080818,0.02783006429672241,-0.003195106983184814,0.05504995584487915,2,-0.03386626020073891,-0.03268098458647728,-0.6175726056098938,0.785104513168335,-0.09314572811126709,0.01281134597957134,-0.9955700635910034,-4.205459594726562,48.92670822143555,-56.4918212890625,2,0
1563194062.892508,206,0,65404.396768625,-1.337614059196163,-0.0958377038367461,-0.01314550689272938,-0.01388576626777649,-0.1359855830669403,-0.1623109877109528,-0.0007919222116470337,0.01304224133491516,-0.01082307100296021,2,-0.03485087305307388,-0.03350937739014626,-0.6190783381462097,0.7838395833969116,-0.09568279236555099,0.01314512826502323,-0.9953250885009766,-4.468986511230469,48.93190383911133,-56.07342529296875,2,0
1563194062.926357,207,0,65404.43174162501,-1.337248669523941,-0.1085620945344387,-0.01305531629460943,0.01408352144062519,-0.6069141626358032,0.1169338300824165,0.004095152020454407,0.002893749624490738,-0.0987589955329895,2,-0.03874647989869118,-0.0385306179523468,-0.6187030076980591,0.7837223410606384,-0.1083397418260574,0.01305494550615549,-0.9940282106399536,-5.1324462890625,49.03743362426758,-55.97039794921875,2,0
1563194062.958363,208,0,65404.466684625,-1.344688677269618,-0.1361103479654403,-0.01374149810066231,-0.04855857789516449,-0.7075778245925903,-0.3700647354125977,-0.007605791091918945,0.04224686324596405,0.08514249324798584,2,-0.04771547764539719,-0.04893223941326141,-0.6209998726844788,0.7808251976966858,-0.1356776654720306,0.01374106574803591,-0.9906577467918396,-6.849281311035156,48.94157791137695,-55.1539306640625,2,0
1563194063.017954,209,0,65404.50165762501,-1.349168759887321,-0.1588705541586141,-0.01402410859521854,-0.0488709956407547,-0.4996666014194489,-0.2036183625459671,0.01692792773246765,0.06868249177932739,0.0823444128036499,2,-0.05501860380172729,-0.0576038621366024,-0.6221534609794617,0.7788323163986206,-0.15818752348423,0.01402364857494831,-0.9873095154762268,-7.639015197753906,48.57437515258789,-54.9864501953125,2,0
1563194063.024355,210,0,65404.536569625,-1.351523886568559,-0.170572828266156,-0.01369556927994864,0.02536101639270782,-0.1823827773332596,-0.06840556114912033,0.04877790808677673,0.06766813993453979,0.08427590131759644,2,-0.05860345810651779,-0.06219323724508286,-0.6227487921714783,0.7777413725852966,-0.1697309762239456,0.01369514130055904,-0.9853952527046204,-8.732841491699219,48.76812362670898,-54.54791259765625,2,0
1563194063.072973,211,0,65404.571542625,-1.347834674375946,-0.1864633852710982,-0.01279865851435948,0.03783278167247772,-0.5845864415168762,0.1830922961235046,0.01039642095565796,-0.0205007940530777,-0.02989178895950317,2,-0.06307452917098999,-0.06876654177904129,-0.6208632588386536,0.7783454656600952,-0.1853695660829544,0.01279830932617188,-0.9825855493545532,-9.500625610351562,48.60947036743164,-54.52801513671875,2,0
1563194063.090621,212,0,65404.60647729167,-1.33300352023786,-0.2075822178593236,-0.01395116494766963,0.04597695916891098,-0.599032998085022,0.4865396022796631,-0.01147571206092834,-0.04010079056024551,0.01187425851821899,2,-0.06950432062149048,-0.07714097946882248,-0.6143301725387573,0.7821871638298035,-0.2060745656490326,0.0139507120475173,-0.9784368276596069,-10.74770355224609,49.0298957824707,-54.85968017578125,2,0
1563194063.128147,213,0,65404.64145029167,-1.321945968073167,-0.2241474988752016,-0.01613619621931526,-0.02247454039752483,-0.4653693735599518,0.2193483412265778,0.01616658270359039,0.0516786053776741,-0.003179311752319336,2,-0.0749831423163414,-0.08336076885461807,-0.609301745891571,0.7849712371826172,-0.2222463339567184,0.01613549515604973,-0.9748570322990417,-11.24962615966797,49.17191696166992,-55.11224365234375,2,0
1563194063.1559,214,0,65404.67639229167,-1.318038425238595,-0.2434098071768931,-0.01813623156354856,-0.03593634814023972,-0.537434995174408,0.1259526014328003,-0.0006789267063140869,-0.00531332939863205,0.009630441665649414,2,-0.08145416527986526,-0.09046612679958344,-0.6069169640541077,0.7853870391845703,-0.2409736812114716,0.01813523657619953,-0.9703621864318848,-11.86222839355469,49.27473831176758,-54.99981689453125,2,0
1563194063.192141,215,0,65404.71136629167,-1.312139733586458,-0.2598251044636308,-0.02064887862128743,-0.03553957492113113,-0.4135412871837616,0.2108721137046814,-0.02187877893447876,-0.002285920083522797,0.02988177537918091,2,-0.08713263273239136,-0.09640256315469742,-0.6037749052047729,0.7864924073219299,-0.256856769323349,0.02064741216599941,-0.9662289023399353,-12.81964111328125,49.29464340209961,-54.89093017578125,2,0
1563194063.221953,216,0,65404.74627829167,-1.304354806567369,-0.2677129453055111,-0.02282980509019699,0.02699524536728859,-0.1337575614452362,0.2233525365591049,0.003695070743560791,0.003560334444046021,0.06887239217758179,2,-0.08998310565948486,-0.09919422119855881,-0.6002393364906311,0.7885278463363647,-0.2644576132297516,0.02282782271504402,-0.9641271233558655,-13.12137603759766,49.73903274536133,-54.672607421875,2,0
1563194063.256422,217,0,65404.78125129167,-1.297297259187034,-0.269434609256252,-0.02446260752736873,-0.01452085748314857,-0.03877902030944824,0.2554770410060883,-0.04362162947654724,-0.0003146454691886902,0.005512356758117676,2,-0.09079064428806305,-0.09970197826623917,-0.5972825288772583,0.7906137704849243,-0.2661068439483643,0.02446016855537891,-0.963633120059967,-13.05765533447266,49.8137321472168,-54.72393798828125,2,0
1563194063.287848,218,0,65404.81619429167,-1.287114086211588,-0.2733685466206237,-0.02676944266098465,0.03261041641235352,-0.1452494710683823,0.282831072807312,0.01032108068466187,0.01004467159509659,0.01729512214660645,2,-0.09236136078834534,-0.1010366305708885,-0.592936098575592,0.79352867603302,-0.2698796987533569,0.02676624618470669,-0.9625219702720642,-13.1051025390625,49.60855484008789,-54.66522216796875,2,0
1563194063.321773,219,0,65404.85116729167,-1.280297100806719,-0.2737644596664926,-0.02715889641912377,0.03878647089004517,0.04476024210453033,0.1461231410503387,0.03056612610816956,0.01461455971002579,0.03155189752578735,2,-0.09228776395320892,-0.1013928353786469,-0.5901868343353271,0.7955387830734253,-0.2702579200267792,0.02715555764734745,-0.9624049067497253,-12.67128753662109,49.72134780883789,-54.64764404296875,2,0
1563194063.372682,220,0,65404.85116729167,-1.280297100806719,-0.2737644596664926,-0.02715889641912377,0.03878647089004517,0.04476024210453033,0.1461231410503387,0.03056612610816956,0.01461455971002579,0.03155189752578735,2,-0.09228776395320892,-0.1013928353786469,-0.5901868343353271,0.7955387830734253,-0.2702579200267792,0.02715555764734745,-0.9624049067497253,-12.67128753662109,49.72134780883789,-54.64764404296875,2,0
1563194063.387791,221,0,65404.88607929167,-1.278848762096648,-0.2710245613171448,-0.0267728427250121,0.002059830352663994,0.1168487742543221,-0.02711710147559643,0.04706615209579468,0.02035623043775558,0.02105289697647095,2,-0.09125324338674545,-0.1004835143685341,-0.5897588133811951,0.7960907220840454,-0.2676227986812592,0.02676964364945889,-0.9631518125534058,-12.56942749023438,49.74154281616211,-54.69329833984375,2,0
1563194063.432014,222,0,65404.92105229167,-1.279427525078038,-0.2673459348438815,-0.02692506213008839,-0.005190343130379915,0.08463858067989349,-0.01327549107372761,-0.00161445140838623,0.0007186233997344971,0.01113194227218628,2,-0.09025741368532181,-0.09894785284996033,-0.5901473164558411,0.7961087226867676,-0.264076828956604,0.02692180871963501,-0.9641258716583252,-12.29482269287109,49.94510269165039,-54.7508544921875,2,0
1563194063.453659,223,0,65404.95599529167,-1.280415776392628,-0.2637618961925001,-0.02693740786470352,0.00728612020611763,0.08126422762870789,-0.03886859863996506,0.006953060626983643,0.0068402960896492,0.01912117004394531,2,-0.08925279229879379,-0.09747330099344254,-0.5907008051872253,0.7959933876991272,-0.2606196105480194,0.02693415060639381,-0.9650657773017883,-12.24659729003906,50.1043815612793,-54.655029296875,2,0
1563194063.494022,224,0,65404.99096829167,-1.283505449015133,-0.2631135689333631,-0.02508187549524906,0.03191456198692322,-0.01493516750633717,-0.1501340717077255,0.01110076904296875,-0.006075739860534668,0.006076633930206299,2,-0.08847562223672867,-0.09762934595346451,-0.5920633673667908,0.7950481772422791,-0.2600064277648926,0.02507924661040306,-0.9652811288833618,-12.05802917480469,50.12887191772461,-54.6341552734375,2,0
1563194063.519433,225,0,65405.02588029167,-1.288557808876315,-0.2639186231503947,-0.02255757564204339,0.03970862925052643,-0.01940546557307243,-0.1569066941738129,0.003104120492935181,0.009981751441955566,0.01968848705291748,2,-0.08796200156211853,-0.09847795963287354,-0.5941758751869202,0.7934228181838989,-0.2607991099357605,0.02255566231906414,-0.965129554271698,-12.27445983886719,49.80184555053711,-54.60565185546875,2,0
1563194063.551461,226,0,65405.06085329167,-1.294352749748551,-0.2615493113742883,-0.02196243865866681,-0.1613931953907013,0.2624278366565704,-0.07897268980741501,-0.05682706832885742,0.08160624653100967,-0.005821943283081055,2,-0.08730519562959671,-0.09746293723583221,-0.596609354019165,0.7917929291725159,-0.2585151195526123,0.021960673853755,-0.9657575488090515,-12.46021270751953,49.71197891235352,-54.59332275390625,2,0
1563194063.585403,227,0,65405.09579629167,-1.291418232103255,-0.2473945570493269,-0.02955563044662011,-0.1993554085493088,0.4192048311233521,0.2058349549770355,-0.02231873571872711,0.005520820617675781,0.002402245998382568,2,-0.08595092594623566,-0.08970669656991959,-0.5956456065177917,0.793581485748291,-0.244771733880043,0.02955132722854614,-0.969130277633667,-11.81833648681641,49.67208480834961,-54.87945556640625,2,0
1563194063.617439,228,0,65405.13076929167,-1.286439478822093,-0.2340846476249836,-0.03735266350155049,-0.1426790356636047,0.3048398196697235,0.1521519869565964,0.02174106240272522,-0.01897823810577393,0.01336115598678589,2,-0.08486777544021606,-0.08229932934045792,-0.5938225388526917,0.7958637475967407,-0.2317909002304077,0.03734397888183594,-0.9720485806465149,-10.84336853027344,50.49954605102539,-54.9825439453125,2,0
1563194063.652034,229,0,65405.16568129167,-1.284318048429722,-0.2310095836949158,-0.03931722123821074,-0.001568919979035854,0.01063484139740467,0.0375613272190094,-0.018802210688591,-0.002172552049160004,0.01961112022399902,2,-0.08464854210615158,-0.08057855069637299,-0.5930058360099792,0.7966716885566711,-0.2287834584712982,0.03930709138512611,-0.9726834297180176,-10.58966064453125,50.66559219360352,-55.013916015625,2,0
1563194063.683252,230,0,65405.20065429167,-1.284595755304387,-0.2303511138117776,-0.03948726914673433,-0.007600964512676001,0.0146244652569294,-0.01301759760826826,-0.0001722574234008789,0.0008771568536758423,0.01299530267715454,2,-0.08453195542097092,-0.08025378733873367,-0.5931354761123657,0.7966203093528748,-0.2281413972377777,0.03947700932621956,-0.9728273749351501,-10.38421630859375,50.64037704467773,-54.98773193359375,2,0
1563194063.727325,231,0,65405.23559729167,-1.28499422836166,-0.2283740475635063,-0.0407031725026728,-0.05492669716477394,0.08363738656044006,0.0118870846927166,-0.01643460988998413,0.002302326261997223,0.01184052228927612,2,-0.08444403856992722,-0.07908658683300018,-0.5933147668838501,0.7966128587722778,-0.2262065708637238,0.04069193452596664,-0.9732290506362915,-10.34629058837891,50.6547966003418,-54.98809814453125,2,0
1563194063.749193,232,0,65405.27057029167,-1.284696562431562,-0.2227142120576005,-0.04460532422660077,-0.1301383525133133,0.1996886432170868,0.02839951775968075,-0.0191284716129303,0.03670424968004227,0.02357804775238037,2,-0.0843026414513588,-0.07567919790744781,-0.5932344198226929,0.7970185875892639,-0.2206579148769379,0.0445905327796936,-0.9743314385414124,-9.954994201660156,50.73878860473633,-54.8330078125,2,0
1563194063.786816,233,0,65405.30548229167,-1.282005871698139,-0.2137625458705253,-0.05097885229266218,-0.1671486049890518,0.2824248075485229,0.1714691519737244,-0.02306926250457764,0.007878698408603668,0.02300375699996948,2,-0.08408351987600327,-0.07032012939453125,-0.5922148823738098,0.7982897758483887,-0.2118626981973648,0.05095677450299263,-0.9759700894355774,-9.6849365234375,51.11658096313477,-54.76678466796875,2,0
1563194063.815098,234,0,65405.34045529167,-1.279340007867141,-0.2071564619515505,-0.05490832573219251,-0.05981210619211197,0.145783320069313,0.06661368906497955,0.04667063057422638,0.0009192302823066711,0.01322239637374878,2,-0.08360075205564499,-0.06662194430828094,-0.5912306904792786,0.7993864417076111,-0.2053680121898651,0.05488073825836182,-0.9771448373794556,-8.888442993164062,51.32542037963867,-54.67657470703125,2,0
1563194063.853894,235,0,65405.37539829167,-1.274732652021784,-0.202812512256275,-0.05535687458278152,0.06231448799371719,0.1621347516775131,0.1421776711940765,0.0101935863494873,0.005049094557762146,0.01647651195526123,2,-0.08234559744596481,-0.06494177132844925,-0.5895455479621887,0.8008981347084045,-0.2011164426803589,0.0553286075592041,-0.9780035614967346,-8.679512023925781,51.4937858581543,-54.84283447265625,2,0
1563194063.880928,236,0,65405.41037129167,-1.27129544166821,-0.1920993254617138,-0.05022729921904383,0.1868660897016525,0.3435544967651367,0.01719486713409424,-0.0299345850944519,-0.01728031784296036,0.01879423856735229,2,-0.07703235000371933,-0.06230716407299042,-0.5888381600379944,0.8021555542945862,-0.1906792521476746,0.05020618438720703,-0.9803676605224609,-7.446800231933594,51.32201766967773,-55.64013671875,2,0
1563194063.914853,237,0,65405.44531329167,-1.272761334607852,-0.1832529488881346,-0.04239956123750495,0.2362675070762634,0.2323858141899109,-0.08219780027866364,0.01252467930316925,-0.001711495220661163,0.01371842622756958,2,-0.07134135067462921,-0.06102617084980011,-0.5901026725769043,0.8018510341644287,-0.1820652335882187,0.04238685965538025,-0.9823724627494812,-6.043304443359375,50.63055038452148,-55.8868408203125,2,0
1563194063.947071,238,0,65405.44531329167,-1.272761334607852,-0.1832529488881346,-0.04239956123750495,0.2362675070762634,0.2323858141899109,-0.08219780027866364,0.01252467930316925,-0.001711495220661163,0.01371842622756958,2,-0.07134135067462921,-0.06102617084980011,-0.5901026725769043,0.8018510341644287,-0.1820652335882187,0.04238685965538025,-0.9823724627494812,-6.043304443359375,50.63055038452148,-55.8868408203125,2,0
1563194063.981105,239,0,65405.48025629167,-1.272139871516047,-0.1787389134931514,-0.03323282812817083,0.2616317570209503,0.07589654624462128,-0.0176644790917635,-0.01028150320053101,0.01016239821910858,0.01162087917327881,2,-0.06632383912801743,-0.06195554137229919,-0.5903932452201843,0.8019965291023254,-0.1776905506849289,0.03322670981287956,-0.9835253357887268,-5.666656494140625,50.39171981811523,-56.32177734375,2,0
1563194064.033621,240,0,65405.51519929167,-1.272269040297777,-0.1757323750759758,-0.02320369197280904,0.2845960855484009,0.09722994267940521,-0.09891309589147568,-0.02905824780464172,0.01337955892086029,0.01775443553924561,2,-0.06142610684037209,-0.06371793895959854,-0.5909398794174194,0.8018459677696228,-0.1747822165489197,0.02320160903036594,-0.9843336939811707,-5.051750183105469,49.91897201538086,-56.84197998046875,2,0
1563194064.046849,241,0,65405.55017229167,-1.276599703588667,-0.1739958127680477,-0.01178265131693811,0.3371520638465881,0.0175602100789547,-0.201824888586998,-0.007753089070320129,-0.001494988799095154,-0.01124215126037598,2,-0.05648323521018028,-0.06628262996673584,-0.593156099319458,0.8003637790679932,-0.1731071770191193,0.0117823788896203,-0.9848325252532959,-4.125480651855469,49.04150009155273,-57.1207275390625,2,0
1563194064.086403,242,0,65405.58512912501,-1.27939877165465,-0.1742539593908557,0.005804333865814892,0.5465626120567322,-0.01495975814759731,-0.1617097407579422,0.006700873374938965,0.002842634916305542,-0.0001572370529174805,2,-0.04962532967329025,-0.07153701037168503,-0.5948900580406189,0.7990779280662537,-0.1733705252408981,-0.005804301239550114,-0.9848395586013794,-3.32208251953125,48.24482345581055,-57.3465576171875,2,0
1563194064.11277,243,0,65405.620103125,-1.281085923412968,-0.1709090316339242,0.02368260955613102,0.4895696341991425,0.1870714277029037,-0.06806217133998871,0.04649834334850311,-0.002555422484874725,-0.01473522186279297,2,-0.04154538735747337,-0.07547757029533386,-0.5962186455726624,0.7981857657432556,-0.1700305193662643,-0.02368039637804031,-0.9851542115211487,-1.7613525390625,47.03328323364258,-57.4613037109375,2,0
1563194064.14754,244,0,65405.655015125,-1.27663740956442,-0.1598413307385503,0.04833031793486402,0.9018155336380005,0.3927954733371735,-0.02631902135908604,0.01591506600379944,0.04736855626106262,-0.09919339418411255,2,-0.02821266278624535,-0.07844851166009903,-0.595319926738739,0.799152135848999,-0.1589757055044174,-0.0483115054666996,-0.9860997796058655,-0.2448272705078125,46.1143913269043,-58.29705810546875,2,0
1563194064.178593,245,0,65405.68998812501,-1.276069913731842,-0.1394388703609151,0.08745252282471837,1.1492919921875,0.5910543203353882,-0.2323631346225739,-0.05438864231109619,0.02472752332687378,-0.002470076084136963,2,-0.006425464060157537,-0.08187712728977203,-0.5960492491722107,0.7987366318702698,-0.1384563148021698,-0.08734109252691269,-0.9865096807479858,4.401161193847656,43.97981643676758,-58.7099609375,2,0
1563194064.21366,246,0,65405.724930125,-1.279324031040542,-0.1235606584985542,0.1276312036794164,1.153560042381287,0.3092230260372162,-0.212745189666748,-0.0228826031088829,0.02115853130817413,-0.009710311889648438,2,0.01428703777492046,-0.08742846548557281,-0.5977317094802856,0.7967866063117981,-0.1222440302371979,-0.127284973859787,-0.9843043088912964,9.281997680664062,41.24173355102539,-57.88287353515625,2,0
1563194064.244403,247,0,65405.75990412501,-1.279717079127144,-0.1100924787827834,0.1728085039459206,1.298195838928223,0.4604068398475647,-0.1937990337610245,-0.02803923189640045,0.02499473094940186,0.02002537250518799,2,0.03639274463057518,-0.09541827440261841,-0.5977622270584106,0.7951422333717346,-0.1082337871193886,-0.1719496995210648,-0.9791418313980103,12.41442108154297,38.66444778442383,-55.9866943359375,2,0
1563194064.276857,248,0,65405.794816125,-1.283620590559249,-0.09428636702424521,0.2126121325186975,1.009491562843323,0.3589074015617371,-0.2422464191913605,0.03693466633558273,-0.03940549492835999,-0.0139123797416687,2,0.05684546381235123,-0.100984625518322,-0.5986109972000122,0.7926130890846252,-0.09202682971954346,-0.2110139280557632,-0.9731413722038269,13.54559326171875,37.06786727905273,-54.84967041015625,2,0
1563194064.312033,249,0,65405.829789125,-1.279287879124129,-0.07601131946223072,0.2563520521951959,1.455002427101135,0.6311131119728088,0.1079294681549072,0.08604179322719574,-0.09549427032470703,-0.04228347539901733,2,0.07998684793710709,-0.1064799427986145,-0.5954824090003967,0.7922530174255371,-0.07345659285783768,-0.2535535097122192,-0.9645282626152039,15.50601196289062,35.0482292175293,-52.56890869140625,2,0
1563194064.342238,250,0,65405.864731125,-1.276233129520375,-0.04170068997706825,0.308858404051667,1.47538149356842,1.352738261222839,-0.06484570354223251,0.05412548780441284,-0.02908271551132202,0.02709096670150757,2,0.111249677836895,-0.108152724802494,-0.5910426378250122,0.7915776371955872,-0.03971594944596291,-0.3039712607860565,-0.9518529772758484,17.93854522705078,32.6482048034668,-49.800537109375,2,0
1563194064.392218,251,0,65405.899705125,-1.283008069425771,0.01263465068611036,0.3425037486076816,0.6567025780677795,1.318652629852295,-0.2142660468816757,0.05891856551170349,0.05078855156898499,0.0333937406539917,2,0.1402590125799179,-0.0969877764582634,-0.5887735486030579,0.7901053428649902,0.0119004724547267,-0.3358464539051056,-0.9418415427207947,20.87351989746094,31.02117538452148,-46.61761474609375,2,0
1563194064.408314,252,0,65405.93461712501,-1.2897421988164,0.04092842687683011,0.3655616984593884,0.8028571009635925,0.3844990432262421,-0.1236529350280762,0.02492192387580872,0.03087615966796875,-0.01702219247817993,2,0.1573270708322525,-0.09315413981676102,-0.587986171245575,0.787935733795166,0.0382133312523365,-0.3574739396572113,-0.9331409931182861,22.52251434326172,30.53904342651367,-44.3624267578125,2,0
1563194064.452838,253,0,65405.969590125,-1.303581512357434,0.06025179415046868,0.400327688428342,0.9804772138595581,0.5031663775444031,-0.5070785284042358,-0.06615199148654938,0.03354266285896301,0.04231423139572144,2,0.1759049296379089,-0.09708937257528305,-0.5894684195518494,0.7824053168296814,0.0554543174803257,-0.3897201418876648,-0.9192622303962708,22.65648651123047,30.16399002075195,-43.54315185546875,2,0
1563194064.474197,254,0,65406.00453212501,-1.326451109313045,0.08874880303607185,0.4246733569630818,0.6868611574172974,0.5702202320098877,-0.5035746693611145,-0.037694051861763,-0.02323085069656372,0.04451251029968262,2,0.1926028281450272,-0.09544877707958221,-0.593875527381897,0.7753099799156189,0.0807594358921051,-0.4120231866836548,-0.9075873494148254,22.39531707763672,29.44661331176758,-42.47991943359375,2,0
1563194064.512623,255,0,65406.00453212501,-1.326451109313045,0.08874880303607185,0.4246733569630818,0.6868611574172974,0.5702202320098877,-0.5035746693611145,-0.037694051861763,-0.02323085069656372,0.04451251029968262,2,0.1926028281450272,-0.09544877707958221,-0.593875527381897,0.7753099799156189,0.0807594358921051,-0.4120231866836548,-0.9075873494148254,22.39531707763672,29.44661331176758,-42.47991943359375,2,0
1563194064.539995,256,0,65406.039506125,-1.343281057662268,0.1023513730306441,0.4475881979991784,0.7206644415855408,-0.1254278272390366,-0.3072164952754974,-0.04376028478145599,0.01686623692512512,0.04049372673034668,2,0.2045377790927887,-0.09887588769197464,-0.5970720052719116,0.7693457007408142,0.09210808575153351,-0.4327925741672516,-0.8967757225036621,21.69316101074219,28.57793045043945,-41.874755859375,2,0
1563194064.574128,257,0,65406.074418125,-1.347456745581813,0.09565195695313261,0.4702549584561202,0.628804624080658,-0.2441286742687225,0.03438250720500946,-0.05305907130241394,-0.05032706260681152,0.03962790966033936,2,0.2108624577522278,-0.1088490560650826,-0.5973392724990845,0.76607745885849,0.08513923734426498,-0.4531135857105255,-0.8873777985572815,20.4248046875,27.94917678833008,-41.79437255859375,2,0
1563194064.606168,258,0,65406.10939112501,-1.346375420352043,0.08576014736442525,0.490122577933173,0.5790694355964661,-0.2046181112527847,0.1263071298599243,-0.02365711331367493,0.03570935130119324,-0.0182756781578064,2,0.2154401242733002,-0.1186137273907661,-0.5961660742759705,0.7642658948898315,0.07557133585214615,-0.470734030008316,-0.8790326714515686,19.35739898681641,27.16843795776367,-41.71282958984375,2,0
1563194064.644876,259,0,65406.14433412501,-1.339515210425326,0.07643355224266493,0.5159145145723111,0.8219282627105713,-0.1710631996393204,0.2123217880725861,-0.04566696286201477,0.007915616035461426,-0.05542421340942383,2,0.2227841764688492,-0.1292905807495117,-0.5921761393547058,0.7635303139686584,0.06642039120197296,-0.4933305382728577,-0.8673022985458374,18.94828033447266,26.46730422973633,-41.7501220703125,2,0
1563194064.687344,260,0,65406.17930712501,-1.334707851986174,0.06211128073873518,0.5495161032156106,0.9535645246505737,-0.4914107918739319,0.1753487586975098,-0.02940590679645538,0.006579041481018066,-0.02564531564712524,2,0.2315008789300919,-0.144363671541214,-0.5887906551361084,0.7608495354652405,0.05293304473161697,-0.5222746133804321,-0.8511329293251038,17.60588836669922,24.97332382202148,-41.81903076171875,2,0
1563194064.706554,261,0,65406.214219125,-1.327101082645246,0.04653837098155041,0.5796572127318743,0.7686282396316528,-0.1890621185302734,0.2104696780443192,0.03765611350536346,5.292892456054688e-05,-0.03097426891326904,2,0.2388187050819397,-0.1584087014198303,-0.5848314166069031,0.758844256401062,0.03892229497432709,-0.547737181186676,-0.8357446193695068,15.74199676513672,23.03303909301758,-42.14715576171875,2,0
1563194064.75385,262,0,65406.249192125,-1.320762416539148,0.04590880703985456,0.6040637683430574,0.5973700881004333,0.1434785723686218,0.1391897201538086,-0.003307372331619263,-0.01758509874343872,0.04289966821670532,2,0.2483023256063461,-0.1651133745908737,-0.5801047086715698,0.7579987049102783,0.03777124732732773,-0.5679917931556702,-0.8221670389175415,14.70526123046875,21.41050338745117,-42.0792236328125,2,0
1563194064.771756,263,0,65406.284135125,-1.317155327094202,0.04410982980572521,0.6226177122685062,0.5402308106422424,-0.100963369011879,0.08943907171487808,-0.003051608800888062,-0.01576840877532959,0.00808405876159668,2,0.2550340294837952,-0.1708080172538757,-0.5770922899246216,0.7568003535270691,0.03582120686769485,-0.5831636786460876,-0.8115645051002502,14.51676177978516,20.66289520263672,-42.15753173828125,2,0
1563194064.807645,264,0,65406.319108125,-1.31275700687589,0.03798380697386646,0.6445110033487821,0.6795352697372437,-0.02995323576033115,0.1409836262464523,0.03448554873466492,-0.004247784614562988,0.02021169662475586,2,0.2618447840213776,-0.1789658516645432,-0.5739691257476807,0.7549622654914856,0.03035671450197697,-0.6008076071739197,-0.7988170385360718,13.33541107177734,19.73247146606445,-42.38226318359375,2,0
1563194064.837624,265,0,65406.35402012501,-1.310111956707327,0.04344540166996469,0.6623167997862022,0.3775664567947388,0.2790963053703308,0.05688465386629105,0.02200356125831604,-0.006089270114898682,0.04755294322967529,2,0.270292192697525,-0.1817397922277451,-0.5703669190406799,0.7540519833564758,0.034248948097229,-0.6149454712867737,-0.7878255844116211,12.88279724121094,18.70572662353516,-42.2734375,2,0
1563194064.872453,266,0,65406.388993125,-1.309652597661811,0.04932726595003878,0.6748797394708467,0.3862452805042267,0.08835331350564957,0.008099506609141827,0.01226222515106201,0.006222844123840332,0.07195627689361572,2,0.2766836285591125,-0.1831119209527969,-0.5680253505706787,0.7531688809394836,0.03849823027849197,-0.6248034238815308,-0.7798323631286621,12.79387664794922,17.73590087890625,-42.15130615234375,2,0
1563194064.903511,267,0,65406.42393612501,-1.312477974029267,0.05148969245660582,0.6862612059527947,0.2526736259460449,0.05935601890087128,-0.09397652745246887,-0.003840893507003784,0.03957211971282959,0.04741740226745605,2,0.281258761882782,-0.185999721288681,-0.5675216913223267,0.7511436343193054,0.03981588408350945,-0.6336492300033569,-0.772595226764679,12.36916351318359,17.228759765625,-42.4080810546875,2,0
1563194064.935661,268,0,65406.458909125,-1.321197990781498,0.07110832054766837,0.6964299620513387,0.3366804420948029,0.5324488282203674,-0.2091973274946213,-0.03309738636016846,0.05803936719894409,0.05479311943054199,2,0.2897679209709167,-0.1828531622886658,-0.5668222308158875,0.7492074966430664,0.05450388044118881,-0.6414830684661865,-0.7651985287666321,12.48418426513672,16.89191818237305,-42.469970703125,2,0
1563194064.969357,269,0,65406.49385112501,-1.332739225543578,0.0903344978635946,0.7045655879377303,0.1632247269153595,0.1283499449491501,-0.2434835880994797,-0.1208536624908447,0.09050297737121582,0.05030512809753418,2,0.2971463203430176,-0.1797521412372589,-0.5673369169235229,0.7466740012168884,0.0687316507101059,-0.6477029323577881,-0.7587864398956299,13.04236602783203,16.36634063720703,-42.35638427734375,2,0
1563194065.001415,270,0,65406.528824125,-1.343427244029332,0.09607995454441808,0.6992185274594895,-0.285248875617981,-0.01223844289779663,-0.2391871213912964,-0.06539195775985718,0.03617376089096069,0.03722018003463745,2,0.2958860695362091,-0.1776053607463837,-0.5711315274238586,0.7447929978370667,0.07342126965522766,-0.6436197757720947,-0.7618155479431152,13.15603637695312,16.32719421386719,-42.59033203125,2,0
1563194065.051867,271,0,65406.563737125,-1.349976733225762,0.1042303291194511,0.6811648898493029,-0.5930310487747192,0.1269098818302155,-0.1518337726593018,-0.03516441583633423,0.03008377552032471,0.04135751724243164,2,0.2911143600940704,-0.1701191961765289,-0.5746103525161743,0.745744526386261,0.08082373440265656,-0.6296983957290649,-0.7726237773895264,13.56964874267578,17.36676025390625,-42.7742919921875,2,0
1563194065.067446,272,0,65406.563737125,-1.349976733225762,0.1042303291194511,0.6811648898493029,-0.5930310487747192,0.1269098818302155,-0.1518337726593018,-0.03516441583633423,0.03008377552032471,0.04135751724243164,2,0.2911143600940704,-0.1701191961765289,-0.5746103525161743,0.745744526386261,0.08082373440265656,-0.6296983957290649,-0.7726237773895264,13.56964874267578,17.36676025390625,-42.7742919921875,2,0
1563194065.107513,273,0,65406.598698375,-1.353180861496503,0.1051759732353039,0.6594764442718358,-0.6007398962974548,-0.1703785359859467,-0.1210033148527145,-0.0133221298456192,0.01023948192596436,-0.011363685131073,2,0.2832572460174561,-0.1636837273836136,-0.5783167481422424,0.7473437786102295,0.08296878635883331,-0.6127031445503235,-0.7859459519386292,13.95704650878906,18.50823593139648,-42.7802734375,2,0
1563194065.133758,274,0,65406.633640375,-1.358102235588471,0.09826945604708717,0.6411855823407684,-0.4312503039836884,-0.224883034825325,-0.1686019152402878,0.05152140557765961,-0.03461778163909912,-0.03153002262115479,2,0.2742030322551727,-0.1614071726799011,-0.583291232585907,0.7473498582839966,0.07862519472837448,-0.5981459617614746,-0.7975208163261414,13.8448486328125,18.89487457275391,-43.10040283203125,2,0
1563194065.173403,275,0,65406.668614375,-1.357970486112666,0.09876879175905789,0.6257343716736237,-0.4994794428348541,0.1608732342720032,0.04414163157343864,0.1160175651311874,0.007512748241424561,0.01547837257385254,2,0.2687277495861053,-0.1565053164958954,-0.5849648118019104,0.7490712404251099,0.0799252912402153,-0.5856926441192627,-0.8065829873085022,13.82935333251953,19.83903884887695,-43.28668212890625,2,0
1563194065.1993,276,0,65406.703526375,-1.345998601093727,0.09880268358111434,0.6086143416706156,-0.4438141882419586,0.1329691708087921,0.3160112798213959,0.05146026611328125,0.00554811954498291,-0.03837275505065918,2,0.2633800506591797,-0.1497033089399338,-0.5823993682861328,0.7543413639068604,0.0809299573302269,-0.5717311501502991,-0.8164397478103638,14.74304962158203,20.99536514282227,-43.53582763671875,2,0
1563194065.238974,277,0,65406.738499375,-1.330734162507162,0.0904638062494717,0.6028648932756535,-0.1303428709506989,-0.03814548254013062,0.3353341519832611,0.01097676157951355,0.02401608228683472,-0.04115045070648193,2,0.2599759995937347,-0.1491284221410751,-0.5783494114875793,0.7587392330169678,0.07441475987434387,-0.5670046806335449,-0.8203464150428772,15.30736541748047,21.81424713134766,-43.29132080078125,2,0
1563194065.265057,278,0,65406.773441375,-1.316982738670937,0.08038592539813565,0.6009510848231745,-0.0860675647854805,-0.09561224281787872,0.3359530568122864,0.02921424806118011,0.01636600494384766,0.009572505950927734,2,0.2573887407779694,-0.1506108939647675,-0.5746292471885681,0.7621474266052246,0.06623078882694244,-0.5654271841049194,-0.822134792804718,15.49428558349609,21.98336410522461,-43.2249755859375,2,0
1563194065.298909,279,0,65406.808415375,-1.297475393627995,0.06346528113815104,0.5984263443430844,-0.09628038108348846,-0.2088682651519775,0.5145967602729797,0.04320813715457916,-0.005477786064147949,0.01143229007720947,2,0.2530844509601593,-0.1538453102111816,-0.5695935487747192,0.7667092680931091,0.05240128934383392,-0.5633429884910583,-0.82455974817276,15.56668853759766,22.51138305664062,-42.8775634765625,2,0
