loggingTime,loggingSample,identifierForVendor,motionTimestamp_sinceReboot,motionYaw,motionRoll,motionPitch,motionRotationRateX,motionRotationRateY,motionRotationRateZ,motionUserAccelerationX,motionUserAccelerationY,motionUserAccelerationZ,motionAttitudeReferenceFrame,motionQuaternionX,motionQuaternionY,motionQuaternionZ,motionQuaternionW,motionGravityX,motionGravityY,motionGravityZ,motionMagneticFieldX,motionMagneticFieldY,motionMagneticFieldZ,motionMagneticFieldCalibrationAccuracy,label
1562614354.994588,1,0,309618.44114025,-1.244830876893948,0.1129478330838453,0.5011747397263717,-0.4212143421173096,0.2052731066942215,-0.1292165070772171,-0.04204331338405609,-0.08478188514709473,0.05883264541625977,2,0.2330290824174881,-0.09991082549095154,-0.5525182485580444,0.7940018177032471,0.09884689003229141,-0.48045614361763,-0.8714305758476257,0.9984111785888672,-4.813066482543945,-34.53546142578125,2,1
1562614355.027141,2,0,309618.47611425,-1.256164559922286,0.1038996136985194,0.4820182795016757,-0.7357620000839233,-0.6846553683280945,-0.4013089239597321,-0.03135351836681366,-0.1401379406452179,-0.02753645181655884,2,0.2225007712841034,-0.09925713390111923,-0.5598127841949463,0.7919918894767761,0.09189586341381073,-0.4635684490203857,-0.8812828660011292,1.059532165527344,-4.046062469482422,-34.58334350585938,2,1
1562614355.06059,3,0,309618.51105625,-1.264403575974806,0.0915984109726914,0.4487392892897885,-0.9286527633666992,-0.2567683160305023,-0.213776558637619,-0.03464314341545105,-0.08117842674255371,-0.1048169136047363,2,0.2056784629821777,-0.09532873332500458,-0.5672889351844788,0.7917020320892334,0.08241432905197144,-0.4338299930095673,-0.8972176313400269,0.3279685974121094,-2.632282257080078,-35.33941650390625,2,1
1562614355.09304,4,0,309618.54599925,-1.267314190024675,0.07119539280449459,0.4199123243424921,-0.8421157598495483,-0.9493032693862915,-0.1609703451395035,0.03822134435176849,-0.1555165350437164,-0.2089134454727173,2,0.1884601414203644,-0.09527350962162018,-0.5727489590644836,0.7920634746551514,0.06495536863803864,-0.4076803922653198,-0.9108114838600159,-0.4437713623046875,-1.000480651855469,-35.90911865234375,2,1
1562614355.125105,5,0,309618.58094225,-1.275608864023656,0.03296798609263795,0.3828519862104083,-1.118515849113464,-1.037233114242554,-0.3464113175868988,0.0204634815454483,-0.0907236635684967,-0.4021130204200745,2,0.1624696850776672,-0.1002702713012695,-0.5819577574729919,0.7904901504516602,0.03057566285133362,-0.3735674917697906,-0.9270989298820496,-2.369688987731934,0.9564762115478516,-36.65585327148438,2,1
1562614355.159066,6,0,309618.61591525,-1.290588174540344,0.03504462497909178,0.3588867400597225,-0.286138653755188,0.4633198976516724,-0.4172790944576263,-0.009216710925102234,0.02147668600082397,-0.2625929117202759,2,0.1529401540756226,-0.09355499595403671,-0.5891870260238647,0.7878550291061401,0.03280515968799591,-0.35123211145401,-0.935713529586792,-2.783256530761719,1.497819900512695,-36.922607421875,2,1
1562614355.190922,7,0,309618.65082725,-1.301330527003414,0.05943162892894394,0.3724054562805112,0.6534042954444885,0.3811554610729218,-0.1924734115600586,0.02378876507282257,0.03130996227264404,0.1045961976051331,2,0.1649238914251328,-0.08885364979505539,-0.5906062722206116,0.7849135994911194,0.05532529205083847,-0.3638570606708527,-0.9298102855682373,-2.076675415039062,2.055221557617188,-36.37002563476562,2,1
1562614355.229207,8,0,309618.6858022917,-1.305881398341616,0.0467337057405311,0.3879090999570146,0.1605817973613739,-0.7539199590682983,-0.052723228931427,0.04981543123722076,0.01447257399559021,0.1148577928543091,2,0.1669808477163315,-0.09885220974683762,-0.5923938155174255,0.7819304466247559,0.04324573650956154,-0.378253698348999,-0.9246912598609924,-1.93419361114502,1.241771697998047,-36.72799682617188,2,1
1562614355.256877,9,0,309618.7207452917,-1.305454739045638,0.02582364982475273,0.3772859265888258,-0.4114782810211182,-0.3830369710922241,0.03438610956072807,-0.0390053391456604,0.05048495531082153,-0.03501629829406738,2,0.1566667258739471,-0.10381019115448,-0.594607412815094,0.7817423343658447,0.0240047499537468,-0.3683986365795135,-0.9293579459190369,-3.208590507507324,1.375873565673828,-36.84585571289062,2,1
1562614355.309044,10,0,309618.7556872917,-1.303678232993871,0.02555794782807088,0.3732356460471842,0.1059984043240547,0.1705332845449448,0.01286696922034025,-0.0775841623544693,0.05043929815292358,0.008390069007873535,2,0.1551013588905334,-0.1025641858577728,-0.5941829681396484,0.7825412750244141,0.02379575371742249,-0.3646302223205566,-0.9308483004570007,-3.243300437927246,1.696271896362305,-36.90347290039062,2,1
1562614355.323246,11,0,309618.7906302917,-1.309433538477841,0.03366877196391226,0.3866494089399772,0.4702220559120178,0.1279617100954056,-0.2098007351160049,-0.06950896978378296,0.04339629411697388,0.2186789512634277,2,0.1624336689710617,-0.1038695946335793,-0.5949406623840332,0.7803025245666504,0.03117737546563148,-0.3770872950553894,-0.925652801990509,-3.121725082397461,1.254720687866211,-36.79379272460938,2,1
1562614355.35705,12,0,309618.8256032917,-1.320676898268637,0.04070814203736092,0.4023189798926474,0.4579434096813202,0.0698947012424469,-0.2871266901493073,-0.03943298757076263,0.07399147748947144,0.3352369070053101,2,0.1700029671192169,-0.1067821085453033,-0.5976794362068176,0.7761931419372559,0.03744747489690781,-0.3915532231330872,-0.9193931221961975,-2.824062347412109,0.7963104248046875,-36.71884155273438,2,1
1562614355.388543,13,0,309618.8605152917,-1.329219330940478,0.04368089183493856,0.4198707423354199,0.5549829006195068,0.0007977169007062912,-0.1729652285575867,-0.02927125990390778,0.1519405245780945,0.3477368950843811,2,0.1771752536296844,-0.1116853132843971,-0.5994844436645508,0.7724984288215637,0.03987415879964828,-0.4076424241065979,-0.9122706651687622,-2.699066162109375,0.2772216796875,-36.84490966796875,2,1
1562614355.422468,14,0,309618.8954882917,-1.330699921910184,0.05235977705519602,0.4451366829562526,0.8328608870506287,0.4670000076293945,0.1373540163040161,-0.07044677436351776,0.2252192199230194,0.2776070237159729,2,0.1893544495105743,-0.1161353886127472,-0.5973551273345947,0.7706000804901123,0.04723582416772842,-0.4305812418460846,-0.901314914226532,-2.327879905700684,-0.6479568481445312,-36.5919189453125,2,1
1562614355.457894,15,0,309618.9304312917,-1.319498636242242,0.091571188643344,0.472545362674049,0.5856207609176636,1.709670782089233,0.419385701417923,-0.1635338217020035,-0.04364830255508423,0.08353006839752197,2,0.2120375633239746,-0.1081620529294014,-0.5868002772331238,0.7739551663398743,0.08142223954200745,-0.4551541805267334,-0.8866820931434631,-1.970839500427246,-1.337493896484375,-36.130615234375,2,1
1562614355.488562,16,0,309618.9304312917,-1.319498636242242,0.091571188643344,0.472545362674049,0.5856207609176636,1.709670782089233,0.419385701417923,-0.1635338217020035,-0.04364830255508423,0.08353006839752197,2,0.2120375633239746,-0.1081620529294014,-0.5868002772331238,0.7739551663398743,0.08142223954200745,-0.4551541805267334,-0.8866820931434631,-1.970839500427246,-1.337493896484375,-36.130615234375,2,1
1562614355.520455,17,0,309618.9653732917,-1.29551251061404,0.1552534394652407,0.4698706248589284,-0.5351308584213257,2.428399562835693,0.6894617080688477,-0.1107799261808395,-0.07577106356620789,0.03978657722473145,2,0.2305764555931091,-0.07989450544118881,-0.5706605315208435,0.7840905785560608,0.1378727108240128,-0.4527709484100342,-0.8809027075767517,1.164169311523438,-2.341056823730469,-34.87789916992188,2,1
1562614355.554417,18,0,309619.0003162917,-1.2552814188591,0.2410912065118001,0.4476774726014864,-0.8240495324134827,3.189027786254883,0.9779400825500488,-0.1020393222570419,-0.08772000670433044,0.00861656665802002,2,0.2472212463617325,-0.0344984382390976,-0.5468255877494812,0.7991703748703003,0.2152335494756699,-0.4328730404376984,-0.8753830194473267,4.956094741821289,-1.991077423095703,-32.29855346679688,2,1
1562614355.586343,19,0,309619.0352892917,-1.222661278445566,0.3375419620615719,0.4443962893089092,-0.1739498376846313,3.088192701339722,0.6786285042762756,-0.08673706650733948,-0.090985506772995,0.03807264566421509,2,0.2719351947307587,0.009478922933340073,-0.5215805172920227,0.8086502552032471,0.299002468585968,-0.4299128949642181,-0.8519228100776672,9.348165512084961,-2.37348747253418,-29.10906982421875,2,1
1562614355.63504,20,0,309619.0702012917,-1.185898153376866,0.435655849025621,0.429819464808725,-1.071966648101807,3.191642284393311,0.6934255361557007,0.066632479429245,-0.1980490684509277,-0.07871019840240479,2,0.2906616628170013,0.05874082073569298,-0.4948326647281647,0.8168267607688904,0.3836199045181274,-0.4167066812515259,-0.824130654335022,13.36404418945312,-2.414911270141602,-25.4287109375,2,1
1562614355.652407,21,0,309619.1051742917,-1.150243551489508,0.5088093738973267,0.4019155192558349,-1.100753307342529,2.262375593185425,0.4664776027202606,0.1120982766151428,-0.1970248520374298,-0.2132447361946106,2,0.2962424159049988,0.1018529459834099,-0.4736818373203278,0.8230990767478943,0.4483194351196289,-0.3911819458007812,-0.8037328124046326,14.85908508300781,-2.1322021484375,-23.7769775390625,2,1
1562614355.686309,22,0,309619.1401172917,-1.090775376575014,0.5714220206440233,0.375707246058446,-1.710108876228333,2.559189319610596,1.212444186210632,0.1862161159515381,-0.1943761706352234,-0.2294961214065552,2,0.2968178689479828,0.1437635719776154,-0.4439660310745239,0.8331419229507446,0.5031050443649292,-0.3669305443763733,-0.7824623584747314,17.42185211181641,-2.05760383605957,-20.4283447265625,2,1
1562614355.718255,23,0,309619.1750602917,-1.026747309078836,0.6437704323797007,0.3439181184242202,-1.656363606452942,2.972165822982788,0.5274485349655151,0.1359999775886536,-0.2083370089530945,-0.3012110590934753,2,0.2944764196872711,0.1917899549007416,-0.4118695855140686,0.8407519459724426,0.5650672912597656,-0.3371783494949341,-0.7530004978179932,19.5712776184082,-2.262483596801758,-16.78781127929688,2,1
1562614355.752084,24,0,309619.2100022917,-0.9905258201240621,0.7340353910565209,0.3149097651412787,-0.8169564008712769,2.122021675109863,0.1347771733999252,0.08537399768829346,-0.05870777368545532,-0.08308124542236328,2,0.2972063422203064,0.2422512322664261,-0.3886175155639648,0.8378300666809082,0.6369299292564392,-0.3097306787967682,-0.7059654593467712,21.80434417724609,-1.765251159667969,-12.48989868164062,2,1
1562614355.793318,25,0,309619.2449752917,-0.9641634720771924,0.807838119803856,0.3126089351935705,-0.4784961342811584,2.440077543258667,0.6773390173912048,-0.01604604721069336,-0.06300199031829834,0.02133744955062866,2,0.3068228960037231,0.2776233851909637,-0.3669097125530243,0.8331640362739563,0.6877642273902893,-0.3075421750545502,-0.657569944858551,23.16006088256836,-2.408512115478516,-8.71063232421875,2,1
1562614355.818152,26,0,309619.2798882917,-0.9526225044325671,0.8985648512123393,0.3183683496739127,0.07521327584981918,2.981934547424316,0.1610545814037323,-0.03686869144439697,-0.08897489309310913,-0.01580464839935303,2,0.3235085606575012,0.3156302273273468,-0.3465979695320129,0.8219425678253174,0.7431146502494812,-0.3130173087120056,-0.5914395451545715,23.67479705810547,-2.514480590820312,-6.5849609375,2,1
1562614355.851369,27,0,309619.3148612917,-0.9480014166679428,1.018672539085831,0.3197175394608859,-0.2806940376758575,3.644123315811157,0.08287451416254044,-0.006061255931854248,-0.006928950548171997,0.01588213443756104,2,0.3433780670166016,0.3648737072944641,-0.3243724405765533,0.8023348450660706,0.8082665205001831,-0.3142984211444855,-0.4979173541069031,24.62185287475586,-2.801664352416992,-1.188751220703125,2,1
1562614355.88398,28,0,309619.3498032917,-0.9109515893200201,1.108870564478108,0.3053578913341671,-1.548032641410828,2.444071769714355,0.2239831984043121,-0.1995604634284973,0.0869503915309906,0.2170951962471008,2,0.3450130522251129,0.4104121029376984,-0.2977375090122223,0.7898609638214111,0.8537836670875549,-0.3006345331668854,-0.4250558018684387,24.92716217041016,-2.896909713745117,4.004791259765625,2,1
1562614355.916315,29,0,309619.3847462917,-0.8294599327169013,1.141636786904526,0.3072329783614515,-2.238815307617188,1.431263208389282,1.303831815719604,-0.2361953258514404,0.1114738583564758,0.1763157844543457,2,0.3329936563968658,0.4368113577365875,-0.2593998908996582,0.7943694591522217,0.8667362332344055,-0.3024223446846008,-0.3966221213340759,24.72897720336914,-4.607732772827148,6.765960693359375,2,1
1562614355.955009,30,0,309619.4196892917,-0.7336936352672839,1.174926301860312,0.3089000227224862,-2.35194730758667,1.731845140457153,0.8083057999610901,-0.1710883975028992,0.1844279766082764,0.006090879440307617,2,0.3159551024436951,0.4652876555919647,-0.2153972536325455,0.798300564289093,0.8789905309677124,-0.3040108978748322,-0.3673595488071442,24.30837631225586,-6.393825531005859,7.8017578125,2,1
1562614355.981752,31,0,309619.4546622917,-0.668746174165237,1.203628923279492,0.30114166908747,-1.160361647605896,1.326311945915222,0.3425923883914948,-0.2891572713851929,0.2122751772403717,0.1638303399085999,2,0.3004921078681946,0.488154798746109,-0.187239795923233,0.797715961933136,0.8913459181785583,-0.2966106832027435,-0.3428187668323517,23.55131912231445,-8.078733444213867,9.82269287109375,2,1
1562614356.030509,32,0,309619.4895742917,-0.6664017601694522,1.284937839116741,0.3008794723950274,0.372653603553772,3.043754577636719,-0.0876694917678833,-0.1892998814582825,0.2190285921096802,0.1460462808609009,2,0.3071497082710266,0.5205788016319275,-0.1740394532680511,0.7774104475975037,0.9163191318511963,-0.2963602840900421,-0.2693135440349579,22.85766983032227,-8.30866813659668,12.33883666992188,2,1
1562614356.047647,33,0,309619.4895742917,-0.6664017601694522,1.284937839116741,0.3008794723950274,0.372653603553772,3.043754577636719,-0.0876694917678833,-0.1892998814582825,0.2190285921096802,0.1460462808609009,2,0.3071497082710266,0.5205788016319275,-0.1740394532680511,0.7774104475975037,0.9163191318511963,-0.2963602840900421,-0.2693135440349579,22.85766983032227,-8.30866813659668,12.33883666992188,2,1
1562614356.081645,34,0,309619.5245472917,-0.6874880810690328,1.423268128737353,0.3088447365198259,0.7261203527450562,4.107790470123291,0.1837335079908371,-0.2239554524421692,0.165134072303772,-0.1077012419700623,2,0.3271408081054688,0.5682953000068665,-0.1576103270053864,0.7383619546890259,0.9423367977142334,-0.3039582371711731,-0.1400386840105057,21.07668685913086,-8.24786376953125,18.29904174804688,2,1
1562614356.113614,35,0,309619.5594902917,-0.7245894523425173,1.568289747141784,0.3133837376909968,1.171829223632812,3.388388156890869,0.08208572119474411,-0.1963823437690735,0.1747501492500305,-0.1727303862571716,2,0.3505440652370453,0.6131285429000854,-0.1448004990816116,0.6929827332496643,0.951292872428894,-0.3082793354988098,-0.002384496387094259,18.0745849609375,-7.719413757324219,24.3270263671875,2,1
1562614356.147449,36,0,309619.5944322917,-0.7748344208884981,1.671758915845838,0.3278405768751155,1.37478232383728,2.07256555557251,0.7494107484817505,-0.2274890542030334,0.09513276815414429,-0.2053419351577759,2,0.3778380155563354,0.6363567709922791,-0.1378337442874908,0.6582480072975159,0.9419187903404236,-0.3219993710517883,0.09542301297187805,16.78548812866211,-7.350156784057617,26.45858764648438,2,1
1562614356.195271,37,0,309619.6293752917,-0.8213918334297013,1.733890264310339,0.3591552190509422,0.9079974293708801,0.9510586857795715,1.10862135887146,0.06457054615020752,0.04746997356414795,-0.1642770767211914,2,0.4054533243179321,0.641571044921875,-0.1293773949146271,0.6381660103797913,0.9237706661224365,-0.3514834940433502,0.1520116031169891,14.42147064208984,-7.213865280151367,29.42245483398438,2,1
1562614356.213423,38,0,309619.6643482917,-0.8432477174920051,1.77407141520294,0.3668517870326806,0.1183847710490227,0.8045394420623779,-0.1246951520442963,0.1909357905387878,0.1100396513938904,-0.0678093433380127,2,0.4170571565628052,0.6482946872711182,-0.125173419713974,0.6245870590209961,0.9142419099807739,-0.3586784899234772,0.1884453445672989,13.09029769897461,-7.308809280395508,31.08676147460938,2,1
1562614356.245337,39,0,309619.6992399167,-0.8177040045816765,1.784425047660099,0.3436434210281785,-0.7998653054237366,0.4381521940231323,-1.114049434661865,0.1771119832992554,0.1872178912162781,-0.08877336978912354,2,0.4034008681774139,0.6611155867576599,-0.1237387880682945,0.6203891038894653,0.9201304912567139,-0.3369197249412537,0.1996121555566788,12.44539833068848,-6.98956298828125,31.71719360351562,2,1
1562614356.279205,40,0,309619.7342129167,-0.7815284389645523,1.788465650269807,0.2934347917783779,-0.3502376079559326,0.3867142498493195,-1.888048410415649,0.2164065837860107,0.1036794185638428,0.0008554458618164062,2,0.3784372806549072,0.6783414483070374,-0.1305257230997086,0.6161178350448608,0.9346681237220764,-0.2892419099807739,0.2067237943410873,12.37154960632324,-6.680522918701172,31.89968872070312,2,1
1562614356.311302,41,0,309619.7691559167,-0.8066960412680103,1.741369192694534,0.2226967297715913,1.478043079376221,-1.89837920665741,-1.419497728347778,0.3203233480453491,-0.06602372229099274,0.07190251350402832,2,0.3641619980335236,0.6709423065185547,-0.1731622219085693,0.6222838759422302,0.9611513614654541,-0.220860555768013,0.1655550748109818,13.30482864379883,-4.00804328918457,31.31982421875,2,1
1562614356.355191,42,0,309619.8040989167,-0.8504091558832564,1.696724384385921,0.1926667324763097,1.251550078392029,-1.384939074516296,-0.5274329781532288,0.3192082047462463,-0.1856493353843689,0.2249671220779419,2,0.3659626245498657,0.6539932489395142,-0.2057582437992096,0.6293073892593384,0.9737251996994019,-0.1914769560098648,0.1232716217637062,15.39827346801758,-1.019716262817383,29.35626220703125,2,1
1562614356.377164,43,0,309619.8390409167,-0.8763692183276933,1.667588156868588,0.163170796938263,0.5668058395385742,-0.809072732925415,-0.8959124684333801,0.02871471643447876,-0.06714293360710144,0.1798547506332397,2,0.3627364933490753,0.6450587511062622,-0.2295641750097275,0.6321564912796021,0.9820987582206726,-0.1624476909637451,0.09535711258649826,16.57303619384766,1.051914215087891,27.9158935546875,2,1
1562614356.428902,44,0,309619.8740139167,-0.8774723613693058,1.638323953449506,0.1271678103182334,-0.1588408797979355,-0.9558265209197998,-1.037562131881714,0.004211187362670898,-0.06277379393577576,0.1027518510818481,2,0.3489961624145508,0.6416131258010864,-0.2474538087844849,0.6366324424743652,0.9896643161773682,-0.1268253326416016,0.06693144887685776,17.54048919677734,2.605020523071289,26.83096313476562,2,1
1562614356.442998,45,0,309619.9089259167,-0.8542200603070423,1.591059496926694,0.1011309774923939,-0.8320696353912354,-1.401223540306091,-0.6284615993499756,-0.03372448682785034,-0.1056400537490845,0.05528891086578369,2,0.3276859819889069,0.634587287902832,-0.2567029893398285,0.6511715650558472,0.9946863651275635,-0.1009586825966835,0.02015825733542442,18.15557861328125,2.934412002563477,26.05575561523438,2,1
1562614356.476953,46,0,309619.9438999167,-0.8227259279469621,1.540592383946912,0.07894724091690895,-0.8529906272888184,-1.25844931602478,-0.6728112101554871,-0.04930853843688965,-0.126956433057785,0.07599890232086182,2,0.3041842579841614,0.626433789730072,-0.2615692615509033,0.6683069467544556,0.9964306354522705,-0.07886525988578796,-0.03010528907179832,19.04262542724609,3.08729362487793,24.06817626953125,2,1
1562614356.515394,47,0,309619.9788419167,-0.8021328505344422,1.505422257038787,0.05594331075527438,-0.484266608953476,-0.8067424893379211,-0.5763954520225525,-0.06370723247528076,-0.1554172039031982,0.04051828384399414,2,0.2855733633041382,0.6211563348770142,-0.267215371131897,0.6791235208511353,0.9963029623031616,-0.05591413378715515,-0.06522532552480698,20.18038940429688,3.74699878692627,22.52398681640625,2,1
1562614356.542906,48,0,309620.0137849167,-0.7961978716111148,1.490454643747221,0.03559494039776521,-0.07204920053482056,-0.2205812335014343,-0.5421386957168579,-0.1017249822616577,-0.1581210494041443,0.03296071290969849,2,0.2749066650867462,0.6199387907981873,-0.2737394273281097,0.6820329427719116,0.9961429238319397,-0.03558742254972458,-0.08020444214344025,20.40999221801758,4.112969398498535,21.88497924804688,2,1
1562614356.594843,49,0,309620.0487269167,-0.7995358513399179,1.489247191969199,0.01785005112458898,0.08025866001844406,0.03374443203210831,-0.5252008438110352,-0.1604647636413574,-0.1151608526706696,-0.02066850662231445,2,0.2697969377040863,0.6216805577278137,-0.2806160151958466,0.6796892285346985,0.9965178370475769,-0.01784910261631012,-0.08144579082727432,20.26325988769531,4.443401336669922,21.67172241210938,2,1
1562614356.608801,50,0,309620.0837009167,-0.7990489838606248,1.485952267996744,0.002907485482986175,-0.1517297029495239,-0.2436615973711014,-0.309710294008255,-0.1324983835220337,-0.1176520586013794,-0.07701867818832397,2,0.2641244828701019,0.6227899193763733,-0.285561591386795,0.6788413524627686,0.9963987469673157,-0.002907481277361512,-0.08474195003509521,20.40499496459961,5.452373504638672,21.58917236328125,2,1
1562614356.64079,51,0,309620.0837009167,-0.7990489838606248,1.485952267996744,0.002907485482986175,-0.1517297029495239,-0.2436615973711014,-0.309710294008255,-0.1324983835220337,-0.1176520586013794,-0.07701867818832397,2,0.2641244828701019,0.6227899193763733,-0.285561591386795,0.6788413524627686,0.9963987469673157,-0.002907481277361512,-0.08474195003509521,20.40499496459961,5.452373504638672,21.58917236328125,2,1
1562614356.67468,52,0,309620.1186129167,-0.7909614947636037,1.473125856463067,-0.007467170209929225,-0.2889436483383179,-0.3725404739379883,-0.3028840720653534,-0.05366933345794678,-0.06386393308639526,-0.05397844314575195,2,0.2562372386455536,0.6209558844566345,-0.2876999974250793,0.6826308965682983,0.9952062368392944,0.007467100862413645,-0.09751253575086594,20.44568634033203,5.862924575805664,21.15460205078125,2,1
1562614356.706706,53,0,309620.1535859167,-0.7826559102384264,1.467124747268864,-0.02209802212461289,-0.2729350328445435,-0.07721445709466934,-0.3771612346172333,0.01990306377410889,-0.08635213971138,-0.04880803823471069,2,0.2477637231349945,0.6219990253448486,-0.2901346385478973,0.6837778687477112,0.9943879842758179,0.02209622412919998,-0.1034606993198395,20.87907028198242,6.114096641540527,20.85690307617188,2,1
1562614356.75742,54,0,309620.1885279167,-0.7746292758238952,1.465740848987548,-0.03184847749028446,-0.2411892265081406,-0.02375584468245506,-0.2048523277044296,0.04609614610671997,-0.1028896868228912,-0.08455336093902588,2,0.2416950464248657,0.6238420605659485,-0.2905589640140533,0.684090793132782,0.9939825534820557,0.03184309229254723,-0.1048091724514961,20.84475326538086,6.455931663513184,20.83917236328125,2,1
1562614356.772692,55,0,309620.2234709167,-0.7682966117583,1.461940195351923,-0.03864217712677212,-0.2035947144031525,-0.1773863583803177,-0.2437192797660828,0.07547205686569214,-0.05467155575752258,-0.1020423173904419,2,0.2368107438087463,0.6242119669914246,-0.2909318804740906,0.6853020191192627,0.9933390617370605,0.03863256052136421,-0.1085601821541786,20.74477386474609,6.341403007507324,20.70718383789062,2,1
1562614356.806403,56,0,309620.2584139167,-0.7567620305866978,1.449224105766185,-0.05088507986739001,-0.502897322177887,-0.4743785858154297,-0.3654622435569763,0.1667556762695312,-0.09288850426673889,-0.07698917388916016,2,0.2270857840776443,0.6227953433990479,-0.2921833693981171,0.6893380880355835,0.9913344979286194,0.0508631244301796,-0.1211160123348236,20.9842414855957,6.715584754943848,20.63604736328125,2,1
1562614356.839226,57,0,309620.2933869167,-0.7359794353765858,1.432149158234078,-0.0656550534743106,-0.6753399968147278,-0.488541454076767,-0.3589494824409485,0.1937762498855591,-0.05900430679321289,-0.05116569995880127,2,0.2129140347242355,0.6210594177246094,-0.2913404405117035,0.6957539319992065,0.9882699847221375,0.06560789793729782,-0.13790562748909,21.43476486206055,6.658088684082031,20.00997924804688,2,1
1562614356.872473,58,0,309620.3282989167,-0.7133828792900344,1.413635981363354,-0.09074213217990267,-0.8448886871337891,-0.712877631187439,-0.7943810820579529,0.1782771944999695,-0.0384984016418457,-0.05151075124740601,2,0.194208562374115,0.6199579834938049,-0.292851984500885,0.7015504240989685,0.9836122989654541,0.09061764925718307,-0.155870258808136,21.71683883666992,6.823339462280273,19.20333862304688,2,1
1562614356.910311,59,0,309620.3632719167,-0.6719413183206399,1.376484233063011,-0.1282327540043002,-1.671485781669617,-1.50663697719574,-0.7548912763595581,0.2982163429260254,-0.1532790213823318,-0.06470125913619995,2,0.1622591763734818,0.6147510409355164,-0.2925362884998322,0.7142658233642578,0.9731246829032898,0.1278816014528275,-0.1915062367916107,21.97495651245117,7.401776313781738,17.71353149414062,2,1
1562614356.938188,60,0,309620.3982149167,-0.6045942519242309,1.327759857104946,-0.155563961153546,-2.109589099884033,-1.610892057418823,-0.1574560254812241,0.3037989735603333,-0.1381914019584656,0.01465123891830444,2,0.1244651302695274,0.6046783924102783,-0.2794808745384216,0.7353658676147461,0.958890974521637,0.154937282204628,-0.2377449423074722,22.38003540039062,7.230147361755371,16.75833129882812,2,1
1562614356.992613,61,0,309620.4331569167,-0.5426405862770927,1.295887543708978,-0.176122334458822,-1.632491111755371,-0.9299705624580383,-0.1530767232179642,0.185215950012207,-0.07817663252353668,0.07592135667800903,2,0.09356878697872162,0.5980091691017151,-0.2639971077442169,0.7509564161300659,0.9475614428520203,0.1752132177352905,-0.2672598361968994,23.40516662597656,6.446632385253906,14.85440063476562,2,1
1562614357.004215,62,0,309620.4680999167,-0.5047145124046378,1.28703995475958,-0.1965613189358972,-0.9591449499130249,-0.2068524956703186,-0.3035916686058044,0.05723518133163452,-0.08642169833183289,0.1115397214889526,2,0.07308251410722733,0.597806453704834,-0.2557932734489441,0.7562117576599121,0.9415245652198792,0.1952980309724808,-0.2745727896690369,23.52107238769531,6.152466773986816,13.99627685546875,2,1
1562614357.036178,63,0,309620.5030729167,-0.4858100295007593,1.296704234063801,-0.2118724383527036,-0.4846611022949219,0.323173463344574,-0.2518709599971771,-0.05278241634368896,-0.09544911980628967,0.1265046000480652,2,0.06262394040822983,0.6031318306922913,-0.2526196241378784,0.7539851069450378,0.9411448836326599,0.2102908343076706,-0.2646204829216003,23.19574356079102,6.480986595153809,14.03094482421875,2,1
1562614357.074992,64,0,309620.5379849167,-0.4742250635160028,1.313576952214717,-0.2211225836445621,-0.3505721092224121,0.412085235118866,-0.1151019185781479,-0.2025608420372009,-0.0937262624502182,0.1192371249198914,2,0.05761026218533516,0.6103948354721069,-0.2503762245178223,0.7492735981941223,0.9435539245605469,0.2193250060081482,-0.2481984049081802,23.17645263671875,6.583307266235352,14.35784912109375,2,1
1562614357.101937,65,0,309620.5729579167,-0.4624919240575601,1.324079130837079,-0.2247088417411215,-0.3397772014141083,0.09878279268741608,0.02343652211129665,-0.2682657241821289,-0.04275009036064148,0.09561604261398315,2,0.05392302945256233,0.6148588061332703,-0.2467194050550461,0.7471081018447876,0.9453396797180176,0.2228225320577621,-0.2380819171667099,22.99380874633789,6.409127235412598,14.98483276367188,2,1
1562614357.150031,66,0,309620.6079009167,-0.4515465891856323,1.320414269065167,-0.2268942749470118,-0.2965288758277893,-0.3160817325115204,-0.01780333556234837,-0.2647308111190796,0.09078572690486908,0.09309852123260498,2,0.04925989359617233,0.6138905882835388,-0.2433464974164963,0.7493292689323425,0.9439868330955505,0.2249524891376495,-0.2414236217737198,23.11063766479492,6.353908538818359,15.00653076171875,2,1
1562614357.16837,67,0,309620.6428439167,-0.4440945751486229,1.3084274188855,-0.2353962668605571,-0.2365743964910507,-0.3918163478374481,-0.2740188837051392,-0.2129824161529541,0.1732076108455658,0.1407415270805359,2,0.04219544306397438,0.6100093722343445,-0.2432508915662766,0.7529522180557251,0.93914395570755,0.2332283407449722,-0.2522162199020386,23.27790451049805,6.497247695922852,14.22994995117188,2,1
1562614357.201927,68,0,309620.677810375,-0.4388940216922713,1.299093189456883,-0.2485600655275469,-0.2428635507822037,-0.244477242231369,-0.3097776770591736,-0.158308207988739,0.1635091006755829,0.1505732536315918,2,0.03429947048425674,0.607257068157196,-0.2451983690261841,0.7549439072608948,0.9337103962898254,0.2460085302591324,-0.2601248025894165,23.16976547241211,6.630208015441895,13.84014892578125,2,1
1562614357.233839,69,0,309620.677810375,-0.4388940216922713,1.299093189456883,-0.2485600655275469,-0.2428635507822037,-0.244477242231369,-0.3097776770591736,-0.158308207988739,0.1635091006755829,0.1505732536315918,2,0.03429947048425674,0.607257068157196,-0.2451983690261841,0.7549439072608948,0.9337103962898254,0.2460085302591324,-0.2601248025894165,23.16976547241211,6.630208015441895,13.84014892578125,2,1
1562614357.267833,70,0,309620.712783375,-0.4372393757669472,1.297510454952789,-0.2573115903842939,0.007705012336373329,0.06982310861349106,-0.1974189132452011,-0.1640415191650391,0.1806855499744415,0.1574562191963196,2,0.03015461377799511,0.6071121096611023,-0.2470652759075165,0.754628598690033,0.9311886429786682,0.2544815838336945,-0.2610111832618713,23.2189826965332,6.928933143615723,13.829833984375,2,1
1562614357.309813,71,0,309620.747696375,-0.4492745679915564,1.303245716299701,-0.2635179775080405,0.4080262184143066,0.3347603976726532,-0.3328401148319244,-0.1609147787094116,0.3033197522163391,0.117676854133606,2,0.03208931908011436,0.6093835830688477,-0.2532516717910767,0.75065678358078,0.9311292171478271,0.2604787051677704,-0.2552438378334045,22.94882583618164,7.291229248046875,14.03836059570312,2,1
1562614357.333672,72,0,309620.782669375,-0.4752657259608017,1.312239644329057,-0.277428124961792,0.6711233258247375,0.5200369358062744,-0.7170612215995789,-0.07434415817260742,0.4906135201454163,0.0680885910987854,2,0.03574608266353607,0.6129990220069885,-0.2667137980461121,0.7428446412086487,0.9297940135002136,0.2738830149173737,-0.2459088265895844,22.97019195556641,8.123664855957031,14.56765747070312,2,1
1562614357.366129,73,0,309620.817611375,-0.5053472941956195,1.318992358177814,-0.3061796342655353,0.5031166076660156,0.3211137056350708,-1.163690447807312,0.03886908292770386,0.4954560995101929,-0.03255701065063477,2,0.03469594568014145,0.6164529323577881,-0.2857277691364288,0.73289954662323,0.9234233498573303,0.3014181554317474,-0.2375639528036118,22.3141975402832,9.958514213562012,15.27944946289062,2,1
1562614357.399617,74,0,309620.852554375,-0.545058039716502,1.313485289672628,-0.3472562545979238,1.027860403060913,0.2603541314601898,-1.542374134063721,0.1668623685836792,0.5331674814224243,-0.002829968929290771,2,0.03009559400379658,0.6159940958023071,-0.3115542232990265,0.7228965759277344,0.9093528389930725,0.3403191268444061,-0.2392910569906235,21.77985000610352,12.4802417755127,15.155029296875,2,1
1562614357.431552,75,0,309620.887497375,-0.622910786743938,1.30538506379158,-0.3995415653420906,1.872580766677856,0.8021305203437805,-2.303031921386719,0.3194668889045715,0.7182525396347046,0.07676577568054199,2,0.03234106302261353,0.6149232983589172,-0.353335827589035,0.704256534576416,0.8889819979667664,0.3889960646629333,-0.2416467815637589,21.37316131591797,14.27637767791748,15.20339965820312,2,1
1562614357.475309,76,0,309620.922470375,-0.7068910844225431,1.303420200613918,-0.4799191364716749,1.052199125289917,0.8858227133750916,-2.915924787521362,0.2043313980102539,0.1947011053562164,0.0850837230682373,2,0.02665640972554684,0.618151843547821,-0.4025500416755676,0.6746342182159424,0.855513870716095,0.4617074429988861,-0.2343554645776749,19.36472702026367,18.88396263122559,15.68792724609375,2,1
1562614357.49742,77,0,309620.957382375,-0.7370748217779859,1.299299440894515,-0.5596692985080007,-0.2704280912876129,-0.005989630706608295,-1.94890034198761,0.2142518162727356,-0.2637225389480591,0.01257187128067017,2,0.004275154322385788,0.6215724945068359,-0.4315632581710815,0.6537449955940247,0.816389799118042,0.5309059619903564,-0.227258712053299,16.95898818969727,22.87537574768066,16.05282592773438,2,1
1562614357.550562,78,0,309620.992355375,-0.7309528902434337,1.296061116553507,-0.6052832303468647,-0.5403474569320679,-0.1994112282991409,-0.9576432108879089,0.2088381052017212,-0.1801096796989441,-0.01733428239822388,2,-0.01600268110632896,0.6230542659759521,-0.440013200044632,0.6464794278144836,0.7915007472038269,0.5689949989318848,-0.2230945974588394,16.0184326171875,24.41915893554688,16.29263305664062,2,1
1562614357.563942,79,0,309621.027298375,-0.7249287667217791,1.296468203881336,-0.6431343573596584,-0.3189842998981476,0.007953129708766937,-1.084574580192566,0.1425787210464478,-0.2115554213523865,0.01091152429580688,2,-0.03245884925127029,0.6249452233314514,-0.4465931355953217,0.639487624168396,0.770297646522522,0.5997065305709839,-0.2167797833681107,15.43866729736328,24.91057395935059,16.34786987304688,2,1
1562614357.597133,80,0,309621.062240375,-0.7377924020384058,1.302705505511302,-0.6758419484673274,0.24015973508358,0.6634498238563538,-0.8384734988212585,0.1144385933876038,-0.4088678359985352,0.05732762813568115,2,-0.03966758400201797,0.6285659074783325,-0.4580143094062805,0.6273390650749207,0.7523112297058105,0.6255543828010559,-0.2066627591848373,14.60134887695312,26.08211326599121,16.49945068359375,2,1
1562614357.631943,81,0,309621.097183375,-0.775736662124654,1.319506555404967,-0.6864439943765381,1.019515037536621,1.416362047195435,-0.3509890139102936,0.008698344230651855,-0.474675714969635,0.05984467267990112,2,-0.02785337157547474,0.6348676085472107,-0.4723553657531738,0.610776424407959,0.7492109537124634,0.6337906122207642,-0.1923346221446991,13.40408325195312,26.93529891967773,17.13427734375,2,1
1562614357.663157,82,0,309621.132156375,-0.8341736370227654,1.336406452682084,-0.6833620688228091,1.325576066970825,1.517905950546265,-0.1973752379417419,-0.07054513692855835,-0.4032275676727295,0.02470463514328003,2,-0.003981956280767918,0.6402614116668701,-0.4894005656242371,0.5920612812042236,0.7542504668235779,0.6314037442207336,-0.1800989359617233,12.36408805847168,27.84636878967285,17.60000610351562,2,1
1562614357.71089,83,0,309621.167068375,-0.8840957523488919,1.344588625558087,-0.6822682132332637,0.9047587513923645,0.864927351474762,-0.2335028946399689,-0.1064184308052063,-0.3393599987030029,-0.003840088844299316,2,0.01447438262403011,0.6424580216407776,-0.5037429332733154,0.5773051381111145,0.7563713788986206,0.6305550932884216,-0.1740763634443283,11.50674057006836,28.3996753692627,17.578125,2,1
1562614357.729578,84,0,309621.202041375,-0.909705239443464,1.34044601932147,-0.6854600294614824,0.3262364864349365,0.08998578041791916,-0.196243941783905,-0.03320145606994629,-0.2868568897247314,0.007498443126678467,2,0.02043628692626953,0.6412553787231445,-0.5117943286895752,0.5713496804237366,0.7536804676055908,0.6330292224884033,-0.1767477989196777,11.06217765808105,29.18280792236328,17.51495361328125,2,1
1562614357.761648,85,0,309621.236984375,-0.9159751832220777,1.335085421436599,-0.6901119497042099,0.007752254139631987,-0.04818088188767433,-0.12957863509655,0.1107960343360901,-0.2100527882575989,0.009396970272064209,2,0.01931274496018887,0.6399837136268616,-0.5145848989486694,0.5703070759773254,0.7498505711555481,0.6366235017776489,-0.1800957322120667,10.53527069091797,29.18232727050781,17.19424438476562,2,1
1562614357.795004,86,0,309621.236984375,-0.9159751832220777,1.335085421436599,-0.6901119497042099,0.007752254139631987,-0.04818088188767433,-0.12957863509655,0.1107960343360901,-0.2100527882575989,0.009396970272064209,2,0.01931274496018887,0.6399837136268616,-0.5145848989486694,0.5703070759773254,0.7498505711555481,0.6366235017776489,-0.1800957322120667,10.53527069091797,29.18232727050781,17.19424438476562,2,1
1562614357.827027,87,0,309621.271927375,-0.9088260655677773,1.340400202744705,-0.6924939382297121,-0.2667132318019867,0.05951188504695892,0.04546163603663445,0.1334077715873718,-0.2578622698783875,-0.04117119312286377,2,0.01748775318264961,0.6417270302772522,-0.5129824876785278,0.5698506832122803,0.7493190169334412,0.6384586691856384,-0.1757611930370331,10.43020629882812,29.41867637634277,17.4112548828125,2,1
1562614357.871159,88,0,309621.306869375,-0.8932552620678493,1.352821305775625,-0.6862966084781725,-0.2389815896749496,0.07637026160955429,0.3604778647422791,0.1422039270401001,-0.2384163737297058,-0.1543154120445251,2,0.01798350922763348,0.6450039744377136,-0.5071492195129395,0.5713547468185425,0.7552928328514099,0.6336765885353088,-0.1672929376363754,10.75857162475586,28.90178871154785,17.7933349609375,2,1
1562614357.892991,89,0,309621.341842375,-0.8906512529531369,1.359138152663571,-0.6704347051835385,0.1620368957519531,0.1968688070774078,0.4074789583683014,0.1983398795127869,-0.03253871202468872,-0.1833205819129944,2,0.02470757253468037,0.6458209753036499,-0.5029904842376709,0.5738514065742493,0.7660658955574036,0.6213266849517822,-0.1646096110343933,11.13078308105469,28.92157745361328,17.94564819335938,2,1
1562614357.926745,90,0,309621.376754375,-0.8939017219015685,1.365051819887475,-0.6572920108448651,0.08130957186222076,0.2204512804746628,0.2567763030529022,0.2060384750366211,0.0451502799987793,-0.2135888934135437,2,0.03217818960547447,0.6466058492660522,-0.5010285973548889,0.5743133425712585,0.7749531269073486,0.6109753251075745,-0.1617308855056763,11.37300682067871,28.20899200439453,17.88055419921875,2,1
1562614357.959264,91,0,309621.411728375,-0.8980755795171198,1.367848201135223,-0.6481917652075299,0.276086837053299,0.1662335395812988,0.2316384464502335,0.2830761671066284,0.0834621787071228,-0.2119113206863403,2,0.03763927519321442,0.6467183828353882,-0.5002163052558899,0.5745627284049988,0.7808161377906799,0.6037459373474121,-0.1606772392988205,11.3376579284668,27.69706726074219,17.760498046875,2,1
1562614357.992848,92,0,309621.446670375,-0.9190691009412597,1.371555542659305,-0.6411783078465444,0.4931618869304657,0.6235209703445435,-0.001317562069743872,0.291385293006897,0.2029903531074524,-0.1513357162475586,2,0.04798298329114914,0.6468306183815002,-0.5046299695968628,0.5697862505912781,0.7855376601219177,0.5981401205062866,-0.1586155742406845,11.61205291748047,27.70418548583984,18.01318359375,2,1
1562614358.03011,93,0,309621.481613375,-0.9105242109438133,1.387143259977821,-0.6421745500029147,-0.5933170914649963,-0.0857531875371933,0.09148640185594559,0.1787545084953308,-0.09388929605484009,-0.2533388733863831,2,0.04876090586185455,0.6515372395515442,-0.5020415782928467,0.5666357278823853,0.7873285412788391,0.5989382266998291,-0.1462431997060776,11.12993049621582,27.34597778320312,18.594970703125,2,1
1562614358.058689,94,0,309621.516555375,-0.8759472078145173,1.377945473846399,-0.6329718099395784,-0.6651023626327515,-1.199940800666809,0.5625298023223877,0.2743044495582581,-0.01902008056640625,-0.2497380971908569,2,0.03866962715983391,0.6490303874015808,-0.4902943968772888,0.5804098844528198,0.7913262844085693,0.591543436050415,-0.1545284390449524,11.27153396606445,27.04198455810547,18.76736450195312,2,1
1562614358.114818,95,0,309621.551529375,-0.8557745464057417,1.346145471524547,-0.6151275361208015,-0.1923922300338745,-1.153497099876404,0.5597069263458252,0.308103084564209,0.1023491024971008,-0.08475905656814575,2,0.0311648603528738,0.6387975215911865,-0.4809373319149017,0.599721372127533,0.7961777448654175,0.5770626664161682,-0.1819329559803009,12.62055778503418,26.51272010803223,18.05996704101562,2,1
1562614358.124596,96,0,309621.586441375,-0.8475127966454626,1.322171063241905,-0.5936493022589582,0.02397416532039642,-0.6180251836776733,0.7457691431045532,0.2099361419677734,-0.1215690970420837,0.07067179679870605,2,0.03097213432192802,0.6301235556602478,-0.4740627706050873,0.6142064929008484,0.803417444229126,0.5593896508216858,-0.2039700597524643,13.4006175994873,25.84070205688477,16.84579467773438,2,1
1562614358.156993,97,0,309621.621414375,-0.8406160366306872,1.315219377969352,-0.555422301392421,0.1573069542646408,-0.1906704157590866,1.308630585670471,0.08475255966186523,-0.2264427542686462,0.08458632230758667,2,0.04175381734967232,0.6251845955848694,-0.4635594487190247,0.6265090107917786,0.8220783472061157,0.5273021459579468,-0.2148016840219498,14.65439987182617,24.56010627746582,16.39141845703125,2,1
1562614358.193109,98,0,309621.656356375,-0.8342507754940766,1.312015118435997,-0.4993240143836352,0.3070657551288605,-0.2238649278879166,1.728155970573425,-0.07136178016662598,-0.1530526876449585,0.05931764841079712,2,0.06044913828372955,0.6196907758712769,-0.4488725662231445,0.6409701108932495,0.848674476146698,0.4788321852684021,-0.2246584892272949,15.05965042114258,23.73745918273926,16.09844970703125,2,1
1562614358.222363,99,0,309621.691293125,-0.8295200771636464,1.301397809362415,-0.4337980266278105,0.3973888158798218,-0.4428203105926514,1.865600347518921,-0.1194164752960205,-0.003167837858200073,0.08636766672134399,2,0.08166684955358505,0.6103938817977905,-0.4324197769165039,0.6586069464683533,0.8746480345726013,0.420320063829422,-0.241499662399292,16.52270126342773,21.503173828125,15.58364868164062,2,1
1562614358.270311,100,0,309621.726236125,-0.8267207732872367,1.287967426419162,-0.3673524630302871,0.466501384973526,-0.3941486775875092,1.828341484069824,-0.1487995982170105,0.1498675942420959,0.1604681015014648,2,0.103350467979908,0.599242627620697,-0.4162531197071075,0.6759883761405945,0.896202027797699,0.3591457903385162,-0.2604539096355438,18.26277923583984,19.19232559204102,14.5660400390625,2,1
1562614358.288742,101,0,309621.761209125,-0.8264540150194057,1.280061783106226,-0.3022510395461674,0.5802915096282959,-0.1102435812354088,1.747456431388855,-0.1925177574157715,0.2441074848175049,0.1874857544898987,2,0.126500740647316,0.5892086029052734,-0.400760680437088,0.690088152885437,0.9146047830581665,0.2976699471473694,-0.2736615836620331,19.27419281005859,16.71149826049805,13.8504638671875,2,1
1562614358.322165,102,0,309621.796121125,-0.8329094813860354,1.28051721659449,-0.2425279472160367,0.6933341026306152,0.1399799883365631,1.490516543388367,-0.2641122341156006,0.3236263990402222,0.1623705625534058,2,0.1511702090501785,0.5815719962120056,-0.388109028339386,0.6987796425819397,0.9301223754882812,0.240157350897789,-0.2778431475162506,20.20164489746094,14.4268684387207,13.437255859375,2,1
1562614358.354933,103,0,309621.796121125,-0.8329094813860354,1.28051721659449,-0.2425279472160367,0.6933341026306152,0.1399799883365631,1.490516543388367,-0.2641122341156006,0.3236263990402222,0.1623705625534058,2,0.1511702090501785,0.5815719962120056,-0.388109028339386,0.6987796425819397,0.9301223754882812,0.240157350897789,-0.2778431475162506,20.20164489746094,14.4268684387207,13.437255859375,2,1
1562614358.388145,104,0,309621.831094125,-0.8449479450040241,1.284171484112947,-0.1942020643779981,0.7173435688018799,0.2116304636001587,1.080006718635559,-0.3086254596710205,0.4209735989570618,0.140032947063446,2,0.1735750436782837,0.5754743814468384,-0.3797701597213745,0.7031896114349365,0.9411724805831909,0.1929836571216583,-0.2774018943309784,20.37154769897461,13.61768817901611,13.45407104492188,2,1
1562614358.429859,105,0,309621.866037125,-0.8627173672397227,1.28720507066805,-0.1616844996398454,0.7589466571807861,0.1413083672523499,0.5683767795562744,-0.2685563564300537,0.5796717405319214,0.08660167455673218,2,0.1913966089487076,0.5703414678573608,-0.3773867189884186,0.7040292620658875,0.9475352168083191,0.1609809696674347,-0.2761558890342712,20.6749153137207,12.30439758300781,12.99691772460938,2,1
1562614358.454168,106,0,309621.900979125,-0.8881180007786346,1.288594651228174,-0.1514159427116475,0.7647364735603333,0.1624142229557037,-0.2080041766166687,-0.2455592155456543,0.6275960206985474,0.07935237884521484,2,0.2026919424533844,0.5668100118637085,-0.3835210204124451,0.7003955841064453,0.9494556784629822,0.1508380323648453,-0.2752847671508789,20.48177719116211,12.29186820983887,13.3619384765625,2,1
1562614358.485991,107,0,309621.935922125,-0.9213749529656313,1.28850771536008,-0.163666465572837,0.9200886487960815,0.1518126726150513,-0.7803649306297302,-0.1559510231018066,0.6396055221557617,0.06594496965408325,2,0.2075695544481277,0.5652423501014709,-0.3982369601726532,0.6919705271720886,0.9475858211517334,0.1629367619752884,-0.2748319208621979,20.05327606201172,13.3204345703125,13.20550537109375,2,1
1562614358.520013,108,0,309621.970895125,-0.9792320210730814,1.29097973157035,-0.1949632322181813,1.446518659591675,0.4815483391284943,-1.675106287002563,-0.07354986667633057,0.8020778894424438,0.09221112728118896,2,0.2129652351140976,0.5649533271789551,-0.4255563616752625,0.6740736365318298,0.9428977370262146,0.1937304586172104,-0.2709470987319946,19.46584701538086,15.80134963989258,13.03826904296875,2,1
1562614358.551873,109,0,309622.005807125,-1.037340931248982,1.29435089469229,-0.2648779876791578,0.5842511057853699,0.3601195812225342,-2.640318155288696,-0.0965459942817688,0.3188367784023285,0.08683419227600098,2,0.2047790586948395,0.5712758302688599,-0.4611691832542419,0.647327184677124,0.928480327129364,0.2617915272712708,-0.2634189128875732,18.64210510253906,17.48095512390137,13.07958984375,2,1
1562614358.585845,110,0,309622.040780125,-1.058722686746169,1.288425775640733,-0.3477286633249378,-0.2931833863258362,-0.121568888425827,-2.209736347198486,0.07133740186691284,0.0982438325881958,0.02905166149139404,2,0.1793181896209717,0.580402135848999,-0.4873551428318024,0.6272666454315186,0.9029170870780945,0.3407633006572723,-0.2619566917419434,16.62672805786133,21.41646385192871,13.26907348632812,2,1
1562614358.617687,111,0,309622.075692125,-1.06983479199245,1.280540070457371,-0.4144213269008062,-0.2075018435716629,-0.08592750877141953,-1.856847167015076,0.1798672080039978,0.2033967077732086,-0.02369874715805054,2,0.1560915857553482,0.5870689153671265,-0.5057947635650635,0.6125008463859558,0.8770610094070435,0.4026603102684021,-0.2619709968566895,14.65766143798828,23.81307601928711,13.26190185546875,2,1
1562614358.6578,112,0,309622.110666125,-1.083522896015764,1.27225754748544,-0.4840133957942186,-0.2437925338745117,-0.02595897391438484,-2.062917470932007,0.1661015152931213,0.05345320701599121,0.002455532550811768,2,0.1322402507066727,0.5935847759246826,-0.5246850252151489,0.5957141518592834,0.8459826707839966,0.4653353095054626,-0.2603392601013184,12.87360191345215,26.08921241760254,13.45608520507812,2,1
1562614358.683392,113,0,309622.145608125,-1.106707418656896,1.272438515103158,-0.5468739756612881,0.2203914374113083,0.5969446897506714,-1.741843581199646,0.1422921419143677,-0.2752821445465088,0.08302348852157593,2,0.1158620491623878,0.6008629202842712,-0.5435188412666321,0.5745667815208435,0.8164181709289551,0.5200196504592896,-0.2510794699192047,12.01864814758301,27.33074569702148,13.56454467773438,2,1
1562614358.717515,114,0,309622.180581125,-1.14895093450234,1.284227064552047,-0.586092882113073,0.8893492817878723,1.150428175926208,-1.166410088539124,0.06205904483795166,-0.4033911228179932,0.0620608925819397,2,0.1173577681183815,0.6070277690887451,-0.5618463158607483,0.5496118068695068,0.79913330078125,0.5531101822853088,-0.2354888767004013,9.996768951416016,29.33740615844727,13.8968505859375,2,1
1562614358.749548,115,0,309622.215494125,-1.202401499265222,1.29304365042892,-0.6088018563471831,1.016214609146118,1.022563219070435,-0.8988541960716248,-0.01847535371780396,-0.3543721437454224,0.03311616182327271,2,0.1277948021888733,0.609264075756073,-0.5796204209327698,0.525838315486908,0.7888937592506409,0.5718849897384644,-0.2249315530061722,8.060207366943359,31.11621475219727,13.99029541015625,2,1
1562614358.783446,116,0,309622.250467125,-1.239694322952021,1.295162941467375,-0.6283274319499341,0.4587463140487671,0.4549464583396912,-0.7104372382164001,-0.01028305292129517,-0.3406937122344971,0.01473599672317505,2,0.1326784938573837,0.6101700663566589,-0.5923659801483154,0.5091086030006409,0.7784740924835205,0.5877924561500549,-0.2201778143644333,6.845661163330078,32.20438003540039,13.783935546875,2,1
1562614358.818672,117,0,309622.285379125,-1.249338442245179,1.295121634620539,-0.6482494982376987,-0.1259641051292419,0.03800525516271591,-0.5517296195030212,0.07852590084075928,-0.2866864800453186,-0.02425974607467651,2,0.1283855140209198,0.6123949885368347,-0.5979871153831482,0.5009003281593323,0.7670434713363647,0.6037919521331787,-0.2169790714979172,5.833187103271484,32.40144348144531,13.74050903320312,2,1
1562614358.849587,118,0,309622.320352125,-1.236977962090398,1.298183175606442,-0.6666177077006041,-0.5809977054595947,-0.2129736095666885,-0.359044075012207,0.1348338723182678,-0.2784299254417419,-0.1097705960273743,2,0.1188279539346695,0.6165031790733337,-0.5976000428199768,0.4986761212348938,0.7568939924240112,0.6183313131332397,-0.211607500910759,5.605989456176758,32.89356994628906,13.892333984375,2,1
1562614358.881342,119,0,309622.355295125,-1.204663042323128,1.30763427842841,-0.6798546807117222,-0.8505529165267944,-0.3497318625450134,-0.05265079811215401,0.1796404719352722,-0.3180760741233826,-0.2252972722053528,2,0.1067966818809509,0.6224513053894043,-0.5910918712615967,0.5017561912536621,0.7508909106254578,0.6286800503730774,-0.2022976875305176,5.307239532470703,32.77125930786133,14.26837158203125,2,1
1562614358.915199,120,0,309622.390268125,-1.181429248986281,1.311770353193356,-0.6799453635252141,-0.2471288293600082,-0.2220699191093445,0.09959464520215988,0.2701432108879089,-0.1466987729072571,-0.257792592048645,2,0.1007354035973549,0.6247115731239319,-0.5850310921669006,0.5072737336158752,0.751666247844696,0.6287505626678467,-0.1991756558418274,5.310840606689453,32.28564834594727,14.77999877929688,2,1
1562614358.947371,121,0,309622.390268125,-1.181429248986281,1.311770353193356,-0.6799453635252141,-0.2471288293600082,-0.2220699191093445,0.09959464520215988,0.2701432108879089,-0.1466987729072571,-0.257792592048645,2,0.1007354035973549,0.6247115731239319,-0.5850310921669006,0.5072737336158752,0.751666247844696,0.6287505626678467,-0.1991756558418274,5.310840606689453,32.28564834594727,14.77999877929688,2,1
1562614358.986503,122,0,309622.425180125,-1.18880973587715,1.306685168744723,-0.6772647969408427,0.3228092193603516,0.1139577105641365,-0.06682392209768295,0.3714398741722107,0.0343431830406189,-0.2376335859298706,2,0.102530799806118,0.6227118968963623,-0.5867210626602173,0.5074207782745361,0.7522678971290588,0.626663863658905,-0.2034346610307693,5.278486251831055,32.28329849243164,14.49942016601562,2,1
1562614359.013447,123,0,309622.460153125,-1.20916063761484,1.304202870869473,-0.6758178810210336,0.5636248588562012,0.3604601323604584,-0.08284146338701248,0.4014075994491577,0.007898688316345215,-0.2163328528404236,2,0.1086562424898148,0.6208251118659973,-0.5917562246322632,0.5025878548622131,0.7526343464851379,0.6255356073379517,-0.2055400013923645,5.112037658691406,32.35250854492188,14.4129638671875,2,1
1562614359.04713,124,0,309622.495065125,-1.245717163007008,1.302693092603798,-0.6729118340819792,0.831721305847168,0.7355480790138245,-0.18696229159832,0.4130458831787109,0.06574141979217529,-0.144357442855835,2,0.1205871179699898,0.6179646849632263,-0.6004815101623535,0.4929507672786713,0.7540730237960815,0.6232656836509705,-0.2071567922830582,4.885150909423828,32.72808074951172,13.94869995117188,2,1
1562614359.079264,125,0,309622.530038125,-1.265724800831585,1.309117350159408,-0.6708013553823314,0.2191073149442673,0.3200353980064392,0.08665434271097183,0.2843782901763916,-0.2224931716918945,-0.145280659198761,2,0.1294694840908051,0.6179916262626648,-0.604646623134613,0.4855166971683502,0.7566570639610291,0.6216139197349548,-0.2026479989290237,4.171112060546875,33.00385665893555,13.76351928710938,2,1
1562614359.113618,126,0,309622.564981125,-1.264977142986184,1.306241800440473,-0.651240544594174,0.1292737871408463,-0.2834634184837341,0.7626975774765015,0.2556416988372803,-0.1727656126022339,-0.07342207431793213,2,0.1354352384805679,0.6145533323287964,-0.6016063094139099,0.4919871985912323,0.7676621079444885,0.6061735153198242,-0.2079629898071289,4.564697265625,32.78748321533203,13.80804443359375,2,1
1562614359.161169,127,0,309622.599954125,-1.253914279211952,1.292434816513175,-0.6241644785794651,-0.2049877047538757,-0.7885543704032898,0.7867959141731262,0.2533252239227295,0.05724149942398071,-0.02917712926864624,2,0.1377071440219879,0.6079071760177612,-0.5954917073249817,0.5068287253379822,0.7802165746688843,0.5844194889068604,-0.2229712158441544,5.730724334716797,32.31130981445312,13.52725219726562,2,1
1562614359.179007,128,0,309622.634866125,-1.220042471859221,1.272194882919505,-0.6043171468517008,-0.7769299745559692,-1.24683153629303,0.7923126816749573,0.2432197332382202,-0.04757106304168701,0.07652735710144043,2,0.1287052035331726,0.6019920706748962,-0.5848589539527893,0.5281861424446106,0.7864764928817749,0.5682002902030945,-0.24208103120327,6.546255111694336,32.08315277099609,13.35409545898438,2,1
1562614359.236444,129,0,309622.66982875,-1.179059509978556,1.259350946419522,-0.5773546330071233,-0.5391582250595093,-0.8243201971054077,1.203795552253723,0.1950177550315857,-0.184358537197113,0.1433205008506775,2,0.1226045489311218,0.597148060798645,-0.5700996518135071,0.5507892370223999,0.7975990772247314,0.545809268951416,-0.2567646503448486,7.975889205932617,30.9525318145752,13.183349609375,2,1
1562614359.244716,130,0,309622.70474075,-1.152723660515097,1.25662195377652,-0.5283422424242511,-0.02035968564450741,-0.3407772183418274,1.697195291519165,0.050182044506073,-0.202433168888092,0.1350778937339783,2,0.1320969760417938,0.5908501148223877,-0.5542839765548706,0.5711530447006226,0.8213701844215393,0.504102349281311,-0.266893059015274,9.617040634155273,29.57758712768555,13.16668701171875,2,1
1562614359.276796,131,0,309622.73971375,-1.133359727572495,1.25650284642914,-0.4640595065830802,0.1493155658245087,-0.2576671838760376,1.985556125640869,-0.05843168497085571,-0.1276143789291382,0.1405466198921204,2,0.1500944793224335,0.5824486613273621,-0.5367146134376526,0.5917454361915588,0.8504384756088257,0.4475819766521454,-0.2764503955841064,11.85376930236816,27.41635322570801,12.494384765625,2,1
1562614359.310746,132,0,309622.77465675,-1.114870170949816,1.254409580241519,-0.3922679056375435,0.1960111111402512,-0.2957475185394287,2.157508850097656,-0.1065912246704102,0.01762697100639343,0.1562530398368835,2,0.170614629983902,0.5719611048698425,-0.5171701908111572,0.6134216785430908,0.8781802654266357,0.3822850286960602,-0.2875022888183594,12.71167373657227,26.08885765075684,12.22994995117188,2,1
1562614359.343173,133,0,309622.80962975,-1.09952082923093,1.251616020605954,-0.3174170406452643,0.3295128643512726,-0.1635725051164627,2.124930620193481,-0.143336296081543,0.1824524104595184,0.191583514213562,2,0.1929813921451569,0.5600907802581787,-0.4970785081386566,0.6340106129646301,0.9020608067512512,0.3121136724948883,-0.2981129884719849,14.66921997070312,23.29706573486328,11.60369873046875,2,1
1562614359.395862,134,0,309622.84454175,-1.088622015321099,1.254591337191792,-0.2486719514766089,0.301126092672348,0.07470718771219254,1.869246959686279,-0.2456244230270386,0.2698455452919006,0.209592342376709,2,0.2157017886638641,0.5502493381500244,-0.4782793819904327,0.6495746970176697,0.9211875200271606,0.2461169809103012,-0.3013968169689178,16.39276885986328,20.49825668334961,11.25958251953125,2,1
1562614359.408608,135,0,309622.87951475,-1.077252028980864,1.261108774106058,-0.1913254633736445,0.149519607424736,0.1119447499513626,1.52069890499115,-0.3290525674819946,0.3316798210144043,0.1799294948577881,2,0.2348270416259766,0.5433748364448547,-0.4607639610767365,0.6612840294837952,0.9350498914718628,0.19016033411026,-0.2992000877857208,17.3007698059082,18.24551582336426,11.19766235351562,2,1
1562614359.442627,136,0,309622.91442775,-1.066619751693861,1.264545722138409,-0.1507489831139868,0.01572750695049763,-0.008005551993846893,1.012412786483765,-0.3660945296287537,0.4202476739883423,0.1299219727516174,2,0.2472828477621078,0.5383473634719849,-0.4472664296627045,0.6700641512870789,0.9426571726799011,0.1501786559820175,-0.2980666160583496,18.43800735473633,16.22239875793457,11.23611450195312,2,1
1562614359.475536,137,0,309622.94940075,-1.06107977922861,1.262127578414026,-0.1302397996108589,0.05948659405112267,-0.1232642903923988,0.352192759513855,-0.3084912300109863,0.5793647170066833,0.1121840476989746,2,0.2525905966758728,0.5344054102897644,-0.4407939016819,0.6755068898200989,0.9446698427200317,0.1298719197511673,-0.3012177050113678,18.6143798828125,15.76902008056641,11.06869506835938,2,1
1562614359.508388,138,0,309622.98434275,-1.062425361436745,1.257594585436748,-0.1378787443538544,-0.128772109746933,-0.1304455697536469,-0.5351834297180176,-0.2032086253166199,0.6536726355552673,0.08836263418197632,2,0.2492158263921738,0.5341351628303528,-0.4436482191085815,0.6751054525375366,0.9423234462738037,0.1374423056840897,-0.3051821887493134,18.84127426147461,15.27676200866699,10.92340087890625,2,1
1562614359.556857,139,0,309622.98434275,-1.062425361436745,1.257594585436748,-0.1378787443538544,-0.128772109746933,-0.1304455697536469,-0.5351834297180176,-0.2032086253166199,0.6536726355552673,0.08836263418197632,2,0.2492158263921738,0.5341351628303528,-0.4436482191085815,0.6751054525375366,0.9423234462738037,0.1374423056840897,-0.3051821887493134,18.84127426147461,15.27676200866699,10.92340087890625,2,1
1562614359.574283,140,0,309623.01931675,-1.057224341332571,1.251703170275722,-0.173030400484292,-0.6047015786170959,-0.2639938592910767,-1.070154190063477,-0.1227707266807556,0.5357080698013306,0.01758646965026855,2,0.2338569760322571,0.5392590165138245,-0.4509248435497284,0.6716974973678589,0.9353417158126831,0.1721682846546173,-0.3090212643146515,18.16593933105469,16.11942291259766,10.72222900390625,2,1
1562614359.606317,141,0,309623.05422875,-1.063635580829196,1.246462507265865,-0.2245100988752857,-0.02951223962008953,0.08344459533691406,-1.729652643203735,0.03813958168029785,0.6998291611671448,0.0226324200630188,2,0.2157159000635147,0.54600989818573,-0.4655240774154663,0.6622894406318665,0.9240750670433044,0.2226287871599197,-0.3106796741485596,17.55574417114258,18.17955017089844,10.76776123046875,2,1
1562614359.640237,142,0,309623.08920175,-1.091061374276096,1.254703109413709,-0.2979922383325126,-0.03909612447023392,0.5714128017425537,-2.423659324645996,0.00953376293182373,0.3697125315666199,0.06879997253417969,2,0.1984691619873047,0.5585983991622925,-0.4899066984653473,0.6391941905021667,0.9085684418678284,0.2936015129089355,-0.2971556484699249,15.75818252563477,21.14120483398438,11.15386962890625,2,1
1562614359.672191,143,0,309623.12411375,-1.106842296615483,1.266554033298195,-0.3766895466397188,-0.3523057997226715,0.3707538843154907,-2.106842994689941,0.09023267030715942,0.1213325262069702,-0.03688716888427734,2,0.177145779132843,0.5738780498504639,-0.5104535222053528,0.6154027581214905,0.8871816396713257,0.3678441345691681,-0.2785667181015015,14.60167694091797,22.61428642272949,11.8143310546875,2,1
1562614359.710515,144,0,309623.15908675,-1.114778433367686,1.270799894281522,-0.4471262698227733,-0.4516752958297729,0.09414713084697723,-2.002606391906738,0.1939513683319092,0.2197914719581604,-0.1026387810707092,2,0.1547039449214935,0.5855202078819275,-0.5268058776855469,0.5964129567146301,0.8614215850830078,0.4323760867118835,-0.2664655447006226,12.85427856445312,25.37184143066406,12.66629028320312,2,1
1562614359.738723,145,0,309623.19402975,-1.116243903326845,1.266264926369297,-0.5198245527334506,-0.589189350605011,-0.1746338605880737,-1.939732551574707,0.2435922026634216,-0.03059914708137512,-0.05889403820037842,2,0.1270775943994522,0.5947538018226624,-0.5415899753570557,0.5803443193435669,0.827971875667572,0.4967278838157654,-0.2602384090423584,10.50600624084473,27.27844619750977,12.9136962890625,2,1
1562614359.790979,146,0,309623.22900275,-1.127995190238597,1.267841625359532,-0.5746961384810947,0.07877117395401001,0.5528444051742554,-1.316967844963074,0.2529467344284058,-0.2483366131782532,0.03203636407852173,2,0.1106659844517708,0.6021174192428589,-0.5549165606498718,0.5632719397544861,0.8011324405670166,0.5435797572135925,-0.2504152953624725,8.750656127929688,29.10215377807617,13.34210205078125,2,1
1562614359.80403,147,0,309623.26391475,-1.157103627522093,1.288791835402671,-0.5974133016339109,0.6363382339477539,1.246348142623901,-0.59596848487854,0.07801437377929688,-0.375188946723938,0.006116509437561035,2,0.1169522255659103,0.6093287467956543,-0.5658087134361267,0.5430479645729065,0.7941346764564514,0.5625057220458984,-0.2300813049077988,8.205129623413086,29.53977584838867,13.63214111328125,2,1
1562614359.837998,148,0,309623.29888775,-1.19141401332442,1.31153875262309,-0.6029449345177458,0.7412936091423035,1.084530830383301,-0.2565905153751373,-0.07092064619064331,-0.3821344971656799,-0.04066997766494751,2,0.1319062560796738,0.614020824432373,-0.5745251178741455,0.5248810648918152,0.7961426973342896,0.5670706033706665,-0.2111583352088928,6.945684432983398,30.35126876831055,14.1563720703125,2,1
1562614359.875522,149,0,309623.33379975,-1.216816814400013,1.321279489709013,-0.6018319251960706,0.5028260350227356,0.4714224934577942,-0.07261016219854355,-0.1592751741409302,-0.3479686975479126,-0.04039120674133301,2,0.1429253220558167,0.6146525740623474,-0.5802649855613708,0.5148466825485229,0.7987728118896484,0.5661534667015076,-0.2035491317510605,6.510244369506836,30.80600357055664,14.12594604492188,2,1
1562614359.903846,150,0,309623.36877275,-1.232259085630116,1.320275792913389,-0.6024989828407615,0.2398773580789566,0.1212708204984665,-0.1285496205091476,-0.129132866859436,-0.2734910249710083,0.002064943313598633,2,0.1471332162618637,0.613370418548584,-0.5844111442565918,0.5104823112487793,0.7982020974159241,0.566703200340271,-0.2042570859193802,6.270778656005859,30.89308166503906,13.89840698242188,2,1
1562614359.949732,151,0,309623.40371575,-1.234198064779911,1.320861013580648,-0.6087551546782511,-0.1358209252357483,0.03556744009256363,-0.2141934633255005,-0.04618078470230103,-0.2058351039886475,-0.001633226871490479,2,0.1456448286771774,0.6142744421958923,-0.5859300494194031,0.5080751180648804,0.7948704957962036,0.5718466639518738,-0.202908992767334,6.034097671508789,31.17580795288086,13.75222778320312,2,1
1562614359.969709,152,0,309623.43868875,-1.22182454235807,1.327525871865862,-0.6183039461271806,-0.4600644111633301,-0.07249387353658676,-0.1722707003355026,-0.01251626014709473,-0.2216230034828186,-0.07393354177474976,2,0.1403367072343826,0.6181944012641907,-0.583945095539093,0.5070990920066833,0.7908694744110107,0.5796539187431335,-0.1962825804948807,5.997627258300781,31.13753890991211,13.93408203125,2,1
1562614360.00183,153,0,309623.47360075,-1.198967356156881,1.332706545672141,-0.6260260151308996,-0.5788982510566711,-0.3320856690406799,-0.03458668291568756,0.06218588352203369,-0.2088553905487061,-0.1641323566436768,2,0.131961926817894,0.6221136450767517,-0.5791162252426147,0.5100834369659424,0.7875022888183594,0.5859290361404419,-0.1911213248968124,5.82139778137207,30.91488838195801,14.3221435546875,2,1
1562614360.04369,154,0,309623.50857375,-1.182747467135585,1.328865516494894,-0.6280842762197509,-0.2171289026737213,-0.3482768535614014,0.03953101485967636,0.1741295456886292,-0.06956171989440918,-0.1764131188392639,2,0.1250589936971664,0.6224408149719238,-0.575564980506897,0.5154149532318115,0.7855897545814514,0.5875957012176514,-0.1938553601503372,5.929874420166016,30.80222511291504,14.33270263671875,2,1
1562614360.067498,155,0,309623.54348575,-1.187543680255099,1.322806735823724,-0.6277612144849997,0.2845010757446289,0.08351192623376846,-0.04970467090606689,0.285348653793335,0.05894970893859863,-0.110407292842865,2,0.1249210089445114,0.6205366253852844,-0.5771238803863525,0.5160009860992432,0.7845848202705383,0.5873342752456665,-0.1986580789089203,6.005283355712891,30.8974494934082,14.02951049804688,2,1
1562614360.111354,156,0,309623.54348575,-1.187543680255099,1.322806735823724,-0.6277612144849997,0.2845010757446289,0.08351192623376846,-0.04970467090606689,0.285348653793335,0.05894970893859863,-0.110407292842865,2,0.1249210089445114,0.6205366253852844,-0.5771238803863525,0.5160009860992432,0.7845848202705383,0.5873342752456665,-0.1986580789089203,6.005283355712891,30.8974494934082,14.02951049804688,2,1
1562614360.133948,157,0,309623.57845975,-1.212317884308493,1.323485740251222,-0.6264101767350442,0.6965331435203552,0.5889350175857544,-0.1429196447134018,0.3349819779396057,0.1251987218856812,-0.08924645185470581,2,0.1332854777574539,0.6189307570457458,-0.5831952691078186,0.5089627504348755,0.7854883074760437,0.586240291595459,-0.1983194053173065,5.735502243041992,30.95402908325195,13.85830688476562,2,1
1562614360.167511,158,0,309623.61340175,-1.243874591684572,1.33028962025196,-0.6283422791630816,0.6229882836341858,0.7366713285446167,-0.2740181982517242,0.3505299687385559,0.1485673785209656,-0.1014271378517151,2,0.144349604845047,0.6187188625335693,-0.5909872055053711,0.4970758259296417,0.7857179045677185,0.5878044366836548,-0.1927003264427185,5.300960540771484,31.19898796081543,13.86947631835938,2,1
1562614360.199295,159,0,309623.64837475,-1.263148786611686,1.336623799565182,-0.6332711925924568,0.3053909242153168,0.3857042789459229,-0.2035110145807266,0.3794509768486023,0.1237584352493286,-0.1032223701477051,2,0.1504277139902115,0.6195554733276367,-0.5960885286331177,0.4880583584308624,0.7840949296951294,0.5917848348617554,-0.1870450377464294,4.640060424804688,31.66006469726562,13.57034301757812,2,1
1562614360.233366,160,0,309623.6833005417,-1.265342649391956,1.344411136803736,-0.6353555932362077,-0.1612181216478348,0.1695708930492401,0.02206374146044254,0.2721359133720398,-0.06630545854568481,-0.05478644371032715,2,0.1526845991611481,0.6215780973434448,-0.5963775515556335,0.4844191670417786,0.784324049949646,0.5934637784957886,-0.1806561648845673,4.41450309753418,31.94381332397461,13.96499633789062,2,1
1562614360.270552,161,0,309623.7182745417,-1.242425254104993,1.351952289597444,-0.6299893365269186,-0.6325818300247192,-0.4166903793811798,0.4063499271869659,0.1865671873092651,-0.1466638445854187,-0.08450806140899658,2,0.1497003585100174,0.6244014501571655,-0.5893163084983826,0.490325391292572,0.7887614965438843,0.5891361236572266,-0.175425261259079,4.621824264526367,31.81113052368164,14.4486083984375,2,1
1562614360.299212,162,0,309623.7531865417,-1.204985928650396,1.343765212830908,-0.6168843056869091,-0.8012471795082092,-1.057023763656616,0.599526584148407,0.1561605930328369,-0.07744526863098145,-0.02796351909637451,2,0.1403412818908691,0.6233015060424805,-0.5782876014709473,0.5073294043540955,0.7947536110877991,0.5784965753555298,-0.1835991144180298,5.153362274169922,31.44500732421875,14.371826171875,2,1
1562614360.353744,163,0,309623.7881595417,-1.16686753506818,1.328770853474629,-0.6014561831554401,-0.7460988759994507,-0.9797194004058838,0.6645216345787048,0.1309924125671387,-0.08691692352294922,0.09395897388458252,2,0.1297921538352966,0.6199586391448975,-0.5666773915290833,0.5269554853439331,0.8004817962646484,0.5658437013626099,-0.1976105719804764,6.332588195800781,30.78716850280762,14.63272094726562,2,1
1562614360.365146,164,0,309623.8231015417,-1.130599822472854,1.322895482366488,-0.5812921669295773,-0.6599384546279907,-0.6240118741989136,0.8410168290138245,0.0286787748336792,-0.2002120018005371,0.1412733793258667,2,0.1242854222655296,0.6180767416954041,-0.55361407995224,0.5441009998321533,0.8102046847343445,0.5491043329238892,-0.2050685435533524,7.611909866333008,29.71492958068848,14.57293701171875,2,1
1562614360.397196,165,0,309623.8580755417,-1.096038050268971,1.322322436161663,-0.5523904213322108,-0.5714670419692993,-0.547687292098999,1.108121633529663,-0.06353229284286499,-0.252261221408844,0.1148383021354675,2,0.124070405960083,0.6163861751556396,-0.538551926612854,0.5609246492385864,0.8251290917396545,0.5247236490249634,-0.2093492299318314,8.71708869934082,28.73225021362305,14.68734741210938,2,1
1562614360.436034,166,0,309623.8929875417,-1.063017474595443,1.316677066466091,-0.5130598944109002,-0.4713745713233948,-0.6945421099662781,1.38002622127533,-0.1325741410255432,-0.2127659320831299,0.1008332967758179,2,0.1269244402647018,0.6118639707565308,-0.5216069221496582,0.5808948278427124,0.8432665467262268,0.4908454716205597,-0.2190253287553787,10.51351165771484,27.11481475830078,14.4144287109375,2,1
1562614360.463003,167,0,309623.9279605417,-1.034541958730885,1.305953900164224,-0.4669656773565377,-0.2819674015045166,-0.6654336452484131,1.485218048095703,-0.13435959815979,-0.1089716553688049,0.1351339221000671,2,0.132561519742012,0.6046163439750671,-0.5042990446090698,0.6021203994750977,0.8618049621582031,0.4501788914203644,-0.2337330430746078,11.30032539367676,26.25390434265137,14.04638671875,2,1
1562614360.512531,168,0,309623.9628725417,-1.013146823779619,1.29557025232204,-0.4181430898158878,-0.1012100875377655,-0.5106580853462219,1.488759756088257,-0.1575758457183838,0.01740565896034241,0.1632867455482483,2,0.1416743397712708,0.5964504480361938,-0.4879838228225708,0.621326744556427,0.879450798034668,0.4060642123222351,-0.2483504861593246,12.95390892028809,24.46719932556152,13.59335327148438,2,1
1562614360.529072,169,0,309623.9978455417,-0.9991020610838293,1.287374253000254,-0.3704365787623575,0.0796332061290741,-0.311381459236145,1.352300763130188,-0.1890052556991577,0.1237057745456696,0.1785717010498047,2,0.1532660126686096,0.5883640646934509,-0.473635733127594,0.6371864676475525,0.8949797749519348,0.3620224297046661,-0.2606745064258575,14.92983245849609,22.67217254638672,13.21597290039062,2,1
1562614360.56329,170,0,309624.0327885417,-0.9914224036996296,1.282509981684397,-0.3301045270912693,0.1393524557352066,-0.1745163053274155,1.052745938301086,-0.2228765487670898,0.2455116510391235,0.1737952828407288,2,0.1648561805486679,0.5816723704338074,-0.4624419510364532,0.648557722568512,0.9069690704345703,0.3241419196128845,-0.2689593732357025,15.84708786010742,21.05483245849609,12.78707885742188,2,1
1562614360.597217,171,0,309624.0677615417,-0.9870945352486824,1.279627649404413,-0.3035842872409235,0.057137381285429,-0.1158208921551704,0.5831766128540039,-0.2224749326705933,0.3103700280189514,0.1576471924781799,2,0.1727747172117233,0.5772145986557007,-0.4551830291748047,0.6555764675140381,0.9141048789024353,0.298942506313324,-0.2739444077014923,16.45383834838867,19.88051795959473,12.62152099609375,2,1
1562614360.628695,172,0,309624.1026735417,-0.9831602291871386,1.274813755192383,-0.2933974442262925,-0.0381029024720192,-0.214810386300087,0.1643556505441666,-0.1288265585899353,0.4176107048988342,0.0925300121307373,2,0.1743270754814148,0.5744583010673523,-0.4519490897655487,0.659810483455658,0.9156411290168762,0.2892061471939087,-0.2792154550552368,16.48817443847656,19.80296516418457,12.52569580078125,2,1
1562614360.671629,173,0,309624.1026735417,-0.9831602291871386,1.274813755192383,-0.2933974442262925,-0.0381029024720192,-0.214810386300087,0.1643556505441666,-0.1288265585899353,0.4176107048988342,0.0925300121307373,2,0.1743270754814148,0.5744583010673523,-0.4519490897655487,0.659810483455658,0.9156411290168762,0.2892061471939087,-0.2792154550552368,16.48817443847656,19.80296516418457,12.52569580078125,2,1
1562614360.694656,174,0,309624.1376465417,-0.9817361110511598,1.266661266222451,-0.2989693705607236,-0.1411876678466797,-0.264192670583725,-0.3115524053573608,-0.01798886060714722,0.4982795715332031,0.05939853191375732,2,0.1700026988983154,0.5727190971374512,-0.4534663558006287,0.6614078283309937,0.9117828011512756,0.2945354580879211,-0.2861838340759277,16.67167282104492,19.57775497436523,12.453369140625,2,1
1562614360.726591,175,0,309624.1725585417,-0.9778711509753022,1.258031846848956,-0.3173382192759426,-0.2707487046718597,-0.2907901704311371,-0.5069904923439026,0.05268216133117676,0.4483655691146851,0.02542656660079956,2,0.1600747853517532,0.5728983879089355,-0.4570905566215515,0.661234974861145,0.9039782285690308,0.312038779258728,-0.2923269867897034,16.4703483581543,20.37241363525391,12.3350830078125,2,1
1562614360.760542,176,0,309624.2075315417,-0.9860747728588614,1.254172440091916,-0.3432729353648591,0.1078937500715256,0.1307388842105865,-0.9730989933013916,0.1081976294517517,0.5513956546783447,0.0300176739692688,2,0.1518199890851974,0.5747637152671814,-0.4659060835838318,0.6553845405578613,0.8948501944541931,0.3365708887577057,-0.2931947112083435,16.03955841064453,21.25848770141602,12.23822021484375,2,1
1562614360.792467,177,0,309624.2424745417,-1.004144510251159,1.259752909440086,-0.3880938182023472,-0.01181808300316334,0.4540363252162933,-1.571675658226013,0.04166328907012939,0.3204373121261597,0.04378032684326172,2,0.1415574550628662,0.5816490650177002,-0.4811622500419617,0.6404129862785339,0.8812154531478882,0.3784246742725372,-0.2832916975021362,15.56650543212891,22.09917831420898,12.40570068359375,2,1
1562614360.83034,178,0,309624.2774475417,-1.012245263835068,1.271591145574372,-0.4413849810879552,-0.3616053760051727,0.3387516736984253,-1.386049509048462,-0.03048127889633179,-0.0659337043762207,-0.001092731952667236,2,0.1268448382616043,0.5921611189842224,-0.4942941665649414,0.6236416697502136,0.8639900088310242,0.4271921217441559,-0.2665112018585205,14.21246719360352,24.03708648681641,13.21145629882812,2,1
1562614360.858405,179,0,309624.3123595417,-1.011991294153323,1.278815744015748,-0.4799086461734404,-0.2769419252872467,0.1415621787309647,-0.9099919199943542,-0.004570424556732178,-0.05100294947624207,-0.05408000946044922,2,0.1141196936368942,0.5994247794151306,-0.501831591129303,0.6130512356758118,0.8494939208030701,0.4616981446743011,-0.2553332448005676,12.84491348266602,25.65412521362305,13.850341796875,2,1
1562614360.910424,180,0,309624.3473325417,-1.010572363454567,1.277216787486499,-0.5133988933545794,-0.3410564363002777,-0.1964958906173706,-0.934414267539978,0.0008143782615661621,-0.02777391672134399,-0.08028912544250488,2,0.100702129304409,0.6031768321990967,-0.5083537697792053,0.6063111424446106,0.8338102698326111,0.4911407828330994,-0.2520735859870911,11.84966278076172,26.71543502807617,14.29373168945312,2,1
1562614360.924106,181,0,309624.3822455417,-1.017072428664018,1.270183311644397,-0.5453174587767081,0.07617279887199402,0.04039714485406876,-0.8727306723594666,0.03474241495132446,-0.167064368724823,0.02705872058868408,2,0.08882987499237061,0.6045904159545898,-0.51702481508255,0.5993871092796326,0.8166218996047974,0.5186895132064819,-0.253159373998642,11.08601760864258,27.49492263793945,14.17068481445312,2,1
1562614360.958326,182,0,309624.4172185417,-1.048312238332635,1.273804121768515,-0.5635865997234215,0.8389951586723328,0.8830652832984924,-0.6095868349075317,0.02189528942108154,-0.2619734406471252,0.09004145860671997,2,0.09235585480928421,0.6064464449882507,-0.529662549495697,0.5857906937599182,0.8083362579345703,0.5342215299606323,-0.2473862171173096,10.48205375671387,28.21611404418945,14.22039794921875,2,1
1562614360.99318,183,0,309624.4521605417,-1.093079331445491,1.288996253025323,-0.5661137948216063,1.035389065742493,1.162874221801758,-0.2582711577415466,-0.08960115909576416,-0.3059020042419434,0.04822719097137451,2,0.1090861037373543,0.6088919639587402,-0.5422973036766052,0.5685635209083557,0.8107017278671265,0.5363562107086182,-0.2347016036510468,9.555843353271484,28.93024063110352,14.34371948242188,2,1
1562614361.024129,184,0,309624.4871335417,-1.130795328533935,1.301926896239685,-0.5626512234307329,0.7970821261405945,0.763164758682251,-0.1172831803560257,-0.1582122445106506,-0.2649819254875183,0.01781535148620605,2,0.1253941655158997,0.6098611354827881,-0.5514859557151794,0.5551658272743225,0.815454363822937,0.5334305763244629,-0.2246913909912109,9.076913833618164,29.68986129760742,14.5391845703125,2,1
1562614361.07566,185,0,309624.5220465417,-1.150834238865342,1.30411600950821,-0.5620749086482032,0.2676716446876526,0.1551922261714935,-0.1163045689463615,-0.1429920196533203,-0.1667770743370056,0.02842426300048828,2,0.132318913936615,0.609096348285675,-0.5567700266838074,0.5490906238555908,0.8162406086921692,0.5329430103302002,-0.2229866832494736,8.601430892944336,30.01337051391602,14.63763427734375,2,1
1562614361.090098,186,0,309624.5570195417,-1.149111100130096,1.302918093788345,-0.5684147274644469,-0.2572071552276611,-0.1098605319857597,-0.1963023096323013,-0.0709071159362793,-0.1190915107727051,0.0425260066986084,2,0.1291375160217285,0.6097464561462402,-0.5575429797172546,0.5483417510986328,0.8126983046531677,0.5382966995239258,-0.2230655252933502,8.423498153686523,30.25422286987305,14.5059814453125,2,1
1562614361.121962,187,0,309624.5919315417,-1.132432332244529,1.306633551899214,-0.5784862359490928,-0.5565618872642517,-0.1973445862531662,-0.1269076764583588,-0.02232694625854492,-0.1535686850547791,-0.0335468053817749,2,0.1213739514350891,0.6131553649902344,-0.5545904636383057,0.5493070483207703,0.8082467913627625,0.5467571020126343,-0.2186177223920822,8.271732330322266,30.06085395812988,14.81887817382812,2,1
1562614361.156077,188,0,309624.6269045417,-1.106690493316268,1.312169042045305,-0.5855922271564744,-0.684223473072052,-0.2681858539581299,0.007703698240220547,-0.01423966884613037,-0.1678513884544373,-0.09705263376235962,2,0.1123657152056694,0.6170926094055176,-0.5485003590583801,0.5529177784919739,0.8056682348251343,0.5526930093765259,-0.2131413221359253,8.043521881103516,29.91212463378906,15.30615234375,2,1
1562614361.187913,189,0,309624.6618475417,-1.079964958459012,1.316272024754686,-0.5898995201545718,-0.5841317176818848,-0.323824554681778,0.05170256644487381,0.03354507684707642,-0.08024948835372925,-0.1668947339057922,2,0.1036247089505196,0.6201980710029602,-0.5416760444641113,0.5578560829162598,0.8042245507240295,0.5562775135040283,-0.2092325389385223,8.560506820678711,29.45439910888672,15.7203369140625,2,1
1562614361.235939,190,0,309624.6968074167,-1.067264218322526,1.31411076067165,-0.5928122063686068,-0.1452185809612274,-0.1967384666204453,-0.08401352912187576,0.1202713847160339,0.05730122327804565,-0.1738242506980896,2,0.09802103042602539,0.6205746531486511,-0.5387916564941406,0.5612331032752991,0.8021999001502991,0.5586956143379211,-0.2105579525232315,8.587285995483398,29.28310394287109,15.61056518554688,2,1
1562614361.254787,191,0,309624.6968074167,-1.067264218322526,1.31411076067165,-0.5928122063686068,-0.1452185809612274,-0.1967384666204453,-0.08401352912187576,0.1202713847160339,0.05730122327804565,-0.1738242506980896,2,0.09802103042602539,0.6205746531486511,-0.5387916564941406,0.5612331032752991,0.8021999001502991,0.5586956143379211,-0.2105579525232315,8.587285995483398,29.28310394287109,15.61056518554688,2,1
1562614361.287634,192,0,309624.7317194167,-1.077018500194401,1.311616142163369,-0.6004620325054109,0.3057646155357361,0.2754817605018616,-0.367067277431488,0.2117764949798584,0.1326529979705811,-0.1191380023956299,2,0.09753188490867615,0.6202895045280457,-0.5431050062179565,0.5574634671211243,0.7975175976753235,0.5650237202644348,-0.2114569246768951,8.532478332519531,29.16021728515625,15.73101806640625,2,1
1562614361.319753,193,0,309624.7666924167,-1.104786667866556,1.314155315600312,-0.6098496461032669,0.7120189070701599,0.6231800317764282,-0.4540782570838928,0.2491534352302551,0.09833604097366333,-0.1029577255249023,2,0.1033652946352959,0.6207075119018555,-0.5524057149887085,0.5467044711112976,0.7928863167762756,0.5727441906929016,-0.2080755978822708,7.752302169799805,29.56922912597656,15.68521118164062,2,1
1562614361.353628,194,0,309624.8016044167,-1.144464744899284,1.320225025895731,-0.6233741977408475,0.7345634698867798,0.9065324068069458,-0.7047111988067627,0.2743418216705322,0.1593688726425171,-0.0690644383430481,2,0.1124065667390823,0.6218559145927429,-0.5652327537536621,0.5302565097808838,0.7865580320358276,0.5837780237197876,-0.2013199776411057,6.945062637329102,30.41741943359375,15.5650634765625,2,1
1562614361.390314,195,0,309624.8365774167,-1.160694031748006,1.331676174927309,-0.6463408358453457,-0.1316239088773727,0.316217839717865,-0.682572603225708,0.2330142259597778,-0.0441669225692749,-0.1214874982833862,2,0.1123192235827446,0.6267753839492798,-0.572925329208374,0.5160364508628845,0.7755789160728455,0.6022693514823914,-0.1890740245580673,5.408008575439453,31.17397689819336,15.95523071289062,2,1
1562614361.419594,196,0,309624.8715204167,-1.145916368900788,1.333044551566752,-0.6614789035260774,-0.4861953556537628,-0.4543561637401581,-0.1273380964994431,0.2361822128295898,-0.2095948457717896,-0.09752696752548218,2,0.1025254726409912,0.6297353506088257,-0.5717111825942993,0.5158180594444275,0.7668876647949219,0.6142845153808594,-0.185843825340271,4.927085876464844,31.37038993835449,16.44784545898438,2,1
1562614361.470718,197,0,309624.9064934167,-1.123476983161121,1.323587289718282,-0.6623042823795521,-0.5272566080093384,-0.7754104137420654,0.165472224354744,0.2572038173675537,-0.1000469326972961,-0.05228996276855469,2,0.09247232973575592,0.6284639239311218,-0.5664796829223633,0.5249597430229187,0.7646039128303528,0.614935576915741,-0.1929639279842377,5.283395767211914,31.265869140625,16.3514404296875,2,1
1562614361.485408,198,0,309624.9414054167,-1.092257407807868,1.308829855562336,-0.66014144399702,-0.732813835144043,-1.039314031600952,0.2940604984760284,0.251024067401886,-0.1210753917694092,0.03620582818984985,2,0.07933457940816879,0.6256364583969116,-0.5584237575531006,0.5389323234558105,0.7629560232162476,0.6132285594940186,-0.2045700997114182,5.937580108642578,30.80701446533203,16.32034301757812,2,1
1562614361.5174,199,0,309624.9763784167,-1.058733585601759,1.29822141318907,-0.6496402432453763,-0.5665416717529297,-0.7547440528869629,0.6339664459228516,0.1842109560966492,-0.2439719438552856,0.1161549091339111,2,0.06985638290643692,0.6228427290916443,-0.5477550625801086,0.5542123913764954,0.7669026851654053,0.6048999428749084,-0.2143740355968475,6.733602523803711,30.06266403198242,16.32833862304688,2,1
1562614361.551214,200,0,309625.0112904167,-1.031103492548061,1.295732893298638,-0.6212710224111797,-0.3162910640239716,-0.4548370540142059,1.112932682037354,0.03949767351150513,-0.3002105951309204,0.1243763566017151,2,0.07123945653438568,0.6200785040855408,-0.5347896218299866,0.5695856809616089,0.7825719118118286,0.5820691585540771,-0.220855176448822,8.156936645507812,28.8994140625,16.42343139648438,2,1
1562614361.583799,201,0,309625.0462644167,-1.004885583238196,1.295053250083229,-0.5814571273382803,-0.2804660797119141,-0.4731258153915405,1.325059652328491,-0.06910830736160278,-0.2584403157234192,0.09379398822784424,2,0.07792903482913971,0.6165771484375,-0.5195114016532898,0.5864022970199585,0.8040945529937744,0.5492421984672546,-0.2275193780660629,8.908605575561523,28.05521965026855,16.38180541992188,2,1
1562614361.630629,202,0,309625.0812064167,-0.9786470203970381,1.288197495941903,-0.5375029306261896,-0.2410121560096741,-0.6582952737808228,1.403182864189148,-0.09560865163803101,-0.1479465961456299,0.09282130002975464,2,0.08469964563846588,0.6107866168022156,-0.5030956268310547,0.6055250763893127,0.8249172568321228,0.5119926333427429,-0.2395313531160355,10.59590148925781,26.60382270812988,15.97659301757812,2,1
1562614361.649115,203,0,309625.1161794167,-0.9578640599693509,1.276427038474806,-0.4917090309429637,-0.05611509457230568,-0.5682181119918823,1.379688143730164,-0.09232866764068604,-0.03459864854812622,0.1493216156959534,2,0.0928061306476593,0.6029141545295715,-0.4876777827739716,0.6245414018630981,0.8436086773872375,0.4721331298351288,-0.2557630836963654,12.09940910339355,24.72290992736816,15.37734985351562,2,1
1562614361.683119,204,0,309625.1510914167,-0.9431295515371636,1.269328764604728,-0.4480155190769262,0.01211540959775448,-0.3222799003124237,1.262056589126587,-0.113593578338623,0.05045557022094727,0.1779466867446899,2,0.1032582148909569,0.5962622165679932,-0.4740121364593506,0.6396260857582092,0.8606610298156738,0.4331777691841125,-0.2676182091236115,13.8166332244873,22.90010070800781,14.92599487304688,2,1
1562614361.715181,205,0,309625.1860654167,-0.9273000501165368,1.265325012126435,-0.4085428524369174,-0.08989022672176361,-0.315376877784729,1.159058690071106,-0.1422638297080994,0.1022777557373047,0.1594500541687012,2,0.112616553902626,0.5910343527793884,-0.4604444205760956,0.6526767611503601,0.8752161264419556,0.397272527217865,-0.2759917974472046,14.93984222412109,21.24646949768066,14.441650390625,2,1
1562614361.748997,206,0,309625.2209774167,-0.9110494307878043,1.25950798456673,-0.3745293585690957,-0.121930718421936,-0.3613811135292053,1.009285449981689,-0.1485593318939209,0.1574296355247498,0.1404514312744141,2,0.1194504573941231,0.5858368277549744,-0.4477910995483398,0.6648383140563965,0.8859512209892273,0.3658345639705658,-0.2850536108016968,15.2081413269043,20.49806785583496,14.18203735351562,2,1
1562614361.794463,207,0,309625.2559504167,-0.8991574090977079,1.251121422178977,-0.3450712255259751,0.03180216997861862,-0.3442635834217072,0.8133133053779602,-0.09647476673126221,0.2949569225311279,0.1235587596893311,2,0.1253532767295837,0.5800173282623291,-0.437598705291748,0.6755545735359192,0.89337557554245,0.3382636904716492,-0.2957329154014587,16.14277648925781,19.12984275817871,13.53616333007812,2,1
1562614361.815065,208,0,309625.2908924167,-0.8971157849621351,1.24299811029124,-0.3251005766845994,0.1585337966680527,-0.1881777942180634,0.3860855400562286,0.01253211498260498,0.5106558799743652,0.1023420691490173,2,0.1306186318397522,0.5747969150543213,-0.4328336417675018,0.6820573210716248,0.8971611857414246,0.3194040954113007,-0.3050945699214935,16.44861602783203,18.16095924377441,13.06402587890625,2,1
1562614361.846878,209,0,309625.2908924167,-0.8971157849621351,1.24299811029124,-0.3251005766845994,0.1585337966680527,-0.1881777942180634,0.3860855400562286,0.01253211498260498,0.5106558799743652,0.1023420691490173,2,0.1306186318397522,0.5747969150543213,-0.4328336417675018,0.6820573210716248,0.8971611857414246,0.3194040954113007,-0.3050945699214935,16.44861602783203,18.16095924377441,13.06402587890625,2,1
1562614361.880887,210,0,309625.3258664167,-0.8977413961163472,1.242288129797875,-0.3212899161316979,-0.0365297831594944,0.07489562779664993,-0.01327549386769533,0.004004299640655518,0.4373498857021332,0.100348174571991,2,0.132099837064743,0.5740110278129578,-0.4322155714035034,0.68282550573349,0.8980899453163147,0.3157907426357269,-0.3061219453811646,16.85133361816406,18.13195991516113,13.0941162109375,2,1
1562614361.91292,211,0,309625.3607784167,-0.9028256525689178,1.245968636378937,-0.3256103168649575,0.280079185962677,0.2615225613117218,-0.3094857931137085,0.06891298294067383,0.6058454513549805,0.02760207653045654,2,0.1327103823423386,0.5754996538162231,-0.4346995949745178,0.6798708438873291,0.8979091644287109,0.319887101650238,-0.3023762106895447,16.59973907470703,17.98467636108398,13.15530395507812,2,1
1562614361.951291,212,0,309625.3957514167,-0.925534575021467,1.251827059462094,-0.3485069652605168,0.3139850795269012,0.346712201833725,-1.126297950744629,0.01830184459686279,0.5751574039459229,-0.02402937412261963,2,0.1318446844816208,0.5790067911148071,-0.4472028613090515,0.66886305809021,0.8924751281738281,0.3414949178695679,-0.294736236333847,16.35292816162109,18.46445083618164,13.26593017578125,2,1
1562614361.978632,213,0,309625.4306634167,-0.9422369403211092,1.248518183351326,-0.3997832750772695,-0.2193587273359299,-0.09719757735729218,-1.622829914093018,-0.1442638039588928,0.05103617906570435,-0.06476348638534546,2,0.1164486408233643,0.5835780501365662,-0.4643620848655701,0.6559300422668457,0.8737214207649231,0.3892187178134918,-0.2917527556419373,15.45297622680664,20.0859546661377,13.49871826171875,2,1
1562614362.026238,214,0,309625.4656364167,-0.9550684884113984,1.235156773966872,-0.4440827935433438,0.1101073995232582,-0.2126543819904327,-1.121123790740967,-0.08730018138885498,-0.04176050424575806,-0.0371631383895874,2,0.1001406833529472,0.5841737985610962,-0.4787538349628448,0.6476941704750061,0.8526173830032349,0.4296298325061798,-0.2974256277084351,14.38851165771484,21.92040061950684,13.29110717773438,2,1
1562614362.044451,215,0,309625.5005794167,-0.987606492737874,1.224482141067412,-0.4733478294552301,0.6670385003089905,0.2842413783073425,-1.095636367797852,-0.04648125171661377,0.09162145853042603,0.03153359889984131,2,0.09584410488605499,0.5828877687454224,-0.4957258999347687,0.6366409659385681,0.8372052907943726,0.4558685719966888,-0.3021115064620972,13.43634796142578,23.44421577453613,13.167236328125,2,1
1562614362.078581,216,0,309625.5355524167,-1.027066192636242,1.223173387010249,-0.5034234928749426,0.6001791954040527,0.5876416563987732,-1.149761080741882,-0.03055906295776367,0.03274321556091309,0.06021612882614136,2,0.09556121379137039,0.5845238566398621,-0.5140945911407471,0.6204085350036621,0.8235421776771545,0.4824271202087402,-0.2983998358249664,12.97508239746094,24.06284332275391,13.01699829101562,2,1
1562614362.111221,217,0,309625.5704644167,-1.064012483890562,1.234252069056104,-0.5292078018042623,0.678007185459137,1.017209053039551,-0.8984367251396179,-0.05054682493209839,-0.1881822943687439,0.1185250282287598,2,0.0995246022939682,0.589548647403717,-0.5297247767448425,0.6015968918800354,0.8147825598716736,0.5048496723175049,-0.2850545048713684,11.58055114746094,25.64208984375,13.26681518554688,2,1
1562614362.144389,218,0,309625.6054374167,-1.104641309415355,1.25839324934653,-0.5401938769349047,0.9201348423957825,1.365193724632263,-0.4405726492404938,-0.1054520010948181,-0.2744786739349365,0.1093661189079285,2,0.1139170229434967,0.5960129499435425,-0.5424892902374268,0.580944836139679,0.8160988092422485,0.5143022537231445,-0.2635829448699951,10.28732681274414,26.95089149475098,13.65740966796875,2,1
1562614362.187708,219,0,309625.6403494167,-1.142513287441926,1.282151253031655,-0.5405507899962059,0.8307368755340576,1.120802044868469,-0.240527018904686,-0.1943460702896118,-0.2101944088935852,0.08975964784622192,2,0.1316154301166534,0.6005353927612305,-0.5519319772720337,0.5633877515792847,0.821954071521759,0.5146083235740662,-0.2440692484378815,9.5394287109375,27.52915191650391,14.08108520507812,2,1
1562614362.210449,220,0,309625.675343875,-1.167932761426926,1.29681272746665,-0.5447634443676681,0.3907162249088287,0.5851939916610718,-0.3312886655330658,-0.2028827667236328,-0.1284442543983459,0.08478415012359619,2,0.1417942941188812,0.6034836173057556,-0.5587863326072693,0.5508719682693481,0.8233498334884644,0.5182157754898071,-0.2314037978649139,8.909870147705078,28.16622543334961,14.39761352539062,2,1
1562614362.242472,221,0,309625.710286875,-1.17361427070401,1.302892165047566,-0.5587568834592325,-0.1744546741247177,0.1031823307275772,-0.4898670613765717,-0.1150774955749512,-0.03368741273880005,0.06394684314727783,2,0.140113040804863,0.6067472100257874,-0.5624700784683228,0.5439242124557495,0.8176677823066711,0.530132532119751,-0.2244523167610168,8.570898056030273,28.26261711120605,14.546142578125,2,1
1562614362.277401,222,0,309625.745259875,-1.15795532617408,1.309087090323646,-0.5841813321912346,-0.7727304100990295,-0.1641308963298798,-0.645412802696228,-0.029255211353302,-0.01317203044891357,0.006185770034790039,2,0.1277939975261688,0.612989604473114,-0.5624321103096008,0.5399839282035828,0.8057599663734436,0.5515166521072388,-0.2158248722553253,7.819747924804688,28.7539005279541,14.662353515625,2,1
1562614362.308237,223,0,309625.780171875,-1.119621858580103,1.317684469274062,-0.6170548399143648,-1.266538262367249,-0.4828476905822754,-0.6783318519592285,0.007429003715515137,-0.1255584359169006,-0.1023411154747009,2,0.1062935218214989,0.621757984161377,-0.5575792193412781,0.5396519899368286,0.7895999550819397,0.5786356329917908,-0.2042373865842819,7.517589569091797,28.89231491088867,15.4266357421875,2,1
1562614362.352735,224,0,309625.815144875,-1.069617228478595,1.326025171092962,-0.6489189253812621,-1.304757118225098,-0.6517587304115295,-0.5688169598579407,0.06626176834106445,-0.1444442272186279,-0.1775891780853271,2,0.08116184920072556,0.6299796104431152,-0.5495566129684448,0.5427026152610779,0.7729892134666443,0.6043254137039185,-0.1930768936872482,6.929477691650391,28.70881843566895,16.06167602539062,2,1
1562614362.374643,225,0,309625.850057875,-1.034694007489299,1.327657013166092,-0.6779765414956044,-0.7304165959358215,-0.4856660068035126,-0.6745279431343079,0.2056309580802917,0.02678382396697998,-0.221580982208252,2,0.05974474176764488,0.6345683336257935,-0.5454522967338562,0.544275164604187,0.7559353709220886,0.6272183656692505,-0.1875071972608566,6.866683959960938,28.30692672729492,16.41683959960938,2,1
1562614362.410017,226,0,309625.850057875,-1.034694007489299,1.327657013166092,-0.6779765414956044,-0.7304165959358215,-0.4856660068035126,-0.6745279431343079,0.2056309580802917,0.02678382396697998,-0.221580982208252,2,0.05974474176764488,0.6345683336257935,-0.5454522967338562,0.544275164604187,0.7559353709220886,0.6272183656692505,-0.1875071972608566,6.866683959960938,28.30692672729492,16.41683959960938,2,1
1562614362.440081,227,0,309625.885030875,-1.027576513803399,1.324275782085774,-0.7094793386058184,-0.18340964615345,-0.06689071655273438,-0.9178276658058167,0.3165783882141113,0.06425327062606812,-0.2143742442131042,2,0.04477473720908165,0.6367274522781372,-0.5494641065597534,0.5391313433647156,0.7357636690139771,0.65143883228302,-0.1851467490196228,6.378513336181641,28.72475242614746,16.315185546875,2,1
1562614362.474128,228,0,309625.919972875,-1.048464851558945,1.319729581767179,-0.7396089584982917,0.4776589274406433,0.4735983610153198,-0.9397664666175842,0.4820657968521118,0.09189319610595703,-0.156696617603302,2,0.03888712078332901,0.6377487182617188,-0.5605446100234985,0.5268341302871704,0.7155715227127075,0.6739990711212158,-0.18352872133255,5.053256988525391,29.33579635620117,16.26556396484375,2,1
1562614362.511328,229,0,309625.954915875,-1.093941886649354,1.314850744082534,-0.7625934885920794,0.794743537902832,0.864281177520752,-0.8163312077522278,0.5228793621063232,0.06544864177703857,-0.1193064451217651,2,0.04341299459338188,0.6376456022262573,-0.5763512849807739,0.5092570185661316,0.6994932889938354,0.6907989978790283,-0.1830468028783798,3.629739761352539,30.30254745483398,16.00714111328125,2,1
1562614362.539849,230,0,309625.989858875,-1.117120341972618,1.32377236140014,-0.7792200125436682,0.02343791723251343,0.483235776424408,-0.3957290947437286,0.3730993866920471,-0.2674617767333984,-0.1522220373153687,2,0.04722525551915169,0.6409264206886292,-0.5846902132034302,0.4950964152812958,0.6898650527000427,0.7027246952056885,-0.1739661991596222,2.346595764160156,31.20169258117676,16.0546875,2,1
1562614362.588729,231,0,309626.024831875,-1.103056761386522,1.324735684920993,-0.7752663756239131,-0.2927228808403015,-0.651198148727417,0.5216540098190308,0.320636510848999,-0.334711492061615,-0.148091197013855,2,0.04446724057197571,0.6411194801330566,-0.5805249810218811,0.4999792277812958,0.6927215456962585,0.6999063491821289,-0.1739769577980042,2.354175567626953,31.12158966064453,16.14794921875,2,1
1562614362.606233,232,0,309626.059743875,-1.080836699173373,1.303348440152962,-0.7473376724323049,-0.2155282497406006,-1.171419262886047,1.005634427070618,0.3216343522071838,-0.1370329260826111,-0.00282752513885498,2,0.04164948314428329,0.6335170269012451,-0.5706803798675537,0.5208122730255127,0.707423985004425,0.6796883344650269,-0.1938429921865463,3.642185211181641,30.48307418823242,15.93319702148438,2,1
1562614362.637747,233,0,309626.094716875,-1.059735378489583,1.285966427488414,-0.711006973754894,-0.1194827407598495,-0.666012704372406,1.191609978675842,0.2446600198745728,-0.1424412727355957,0.132375955581665,2,0.04373277723789215,0.625805139541626,-0.5592759251594543,0.541909396648407,0.7271767258644104,0.6525970697402954,-0.2129107415676117,5.383340835571289,29.63539886474609,15.29385375976562,2,1
1562614362.676446,234,0,309626.129659875,-1.037480406100776,1.28938285043592,-0.6657151759697805,-0.09895019233226776,-0.1604078561067581,1.482307553291321,0.07983732223510742,-0.2217064499855042,0.1349968314170837,2,0.05478517338633537,0.622728705406189,-0.545050323009491,0.5586840510368347,0.7555385231971741,0.6176217794418335,-0.2184150815010071,6.986440658569336,28.5299186706543,14.989501953125,2,1
1562614362.703628,235,0,309626.164601875,-1.016841009198981,1.298120793863253,-0.6122475474767809,-0.003301650984212756,-0.1280269473791122,1.64677631855011,-0.05237424373626709,-0.1889073848724365,0.09299683570861816,2,0.0708438903093338,0.6203107833862305,-0.528895378112793,0.5748611688613892,0.7881231904029846,0.5747082233428955,-0.2203913480043411,8.937984466552734,26.77606964111328,14.8267822265625,2,1
1562614362.752895,236,0,309626.199544875,-0.9980041715680916,1.296719614956066,-0.5556509322535955,0.003956711385399103,-0.4669299423694611,1.688677072525024,-0.130715012550354,-0.1049801111221313,0.08408272266387939,2,0.08595218509435654,0.6145261526107788,-0.5122405886650085,0.593783974647522,0.8178479671478271,0.5274963974952698,-0.2299396544694901,9.605209350585938,26.03046798706055,14.64788818359375,2,1
1562614362.770027,237,0,309626.234517875,-0.9821467361664703,1.285989979628829,-0.5000353265560916,0.1068893522024155,-0.5128756165504456,1.597809076309204,-0.1217419505119324,0.003899186849594116,0.1452857851982117,2,0.0993489995598793,0.6056767106056213,-0.4964883923530579,0.6138278841972351,0.8422137498855591,0.4794565439224243,-0.2465710043907166,11.5828800201416,24.33580207824707,13.92056274414062,2,1
1562614362.803373,238,0,309626.269429875,-0.9728655164555413,1.279588463089792,-0.446986209940115,0.2424403876066208,-0.1980458498001099,1.485613822937012,-0.139167308807373,0.07231828570365906,0.1911104321479797,2,0.1149780601263046,0.5977700352668762,-0.4826658368110657,0.6296703219413757,0.8637880682945251,0.4322498142719269,-0.2589020729064941,13.01697540283203,22.30656433105469,13.22824096679688,2,1
1562614362.835456,239,0,309626.304402875,-0.96490121033256,1.279087666330184,-0.3965851218561193,0.192370817065239,-0.08800747990608215,1.412045359611511,-0.1807256937026978,0.1320480108261108,0.1709111332893372,2,0.1314520686864853,0.5916809439659119,-0.4691182971000671,0.6423099637031555,0.8834182620048523,0.3862707614898682,-0.2652680277824402,14.18378829956055,20.58775329589844,12.77291870117188,2,1
1562614362.869367,240,0,309626.339345875,-0.9559480056008189,1.277633842975388,-0.3509154015513213,0.1281128823757172,-0.1648468822240829,1.251195311546326,-0.2256138324737549,0.2109863758087158,0.138988733291626,2,0.1456202566623688,0.5857555866241455,-0.4560197591781616,0.654011607170105,0.8989933133125305,0.3437575697898865,-0.2713702619075775,14.88376235961914,19.72949600219727,12.551513671875,2,1
1562614362.910381,241,0,309626.374287875,-0.9494149054024499,1.272658921304569,-0.3137743485803283,0.166865736246109,-0.2144252508878708,0.9561570882797241,-0.2350730299949646,0.301041841506958,0.1385942101478577,2,0.1565122455358505,0.5794865489006042,-0.4456863403320312,0.6641256213188171,0.9092144966125488,0.3086508810520172,-0.279398500919342,15.62079238891602,18.0417652130127,12.16897583007812,2,1
1562614362.93531,242,0,309626.409230875,-0.9512412760847244,1.265912214035776,-0.2907379106761664,0.2744593620300293,-0.1512271463871002,0.3909260332584381,-0.1586081385612488,0.5182251930236816,0.1329412460327148,2,0.164166659116745,0.5738091468811035,-0.4414719641208649,0.6699961423873901,0.9138497710227966,0.2866592407226562,-0.2875847518444061,16.25605010986328,17.1622486114502,11.602783203125,2,1
1562614362.967482,243,0,309626.409230875,-0.9512412760847244,1.265912214035776,-0.2907379106761664,0.2744593620300293,-0.1512271463871002,0.3909260332584381,-0.1586081385612488,0.5182251930236816,0.1329412460327148,2,0.164166659116745,0.5738091468811035,-0.4414719641208649,0.6699961423873901,0.9138497710227966,0.2866592407226562,-0.2875847518444061,16.25605010986328,17.1622486114502,11.602783203125,2,1
1562614363.001205,244,0,309626.444203875,-0.9574537497849509,1.261409687422832,-0.2901128352543407,0.03131607919931412,-0.05082998424768448,-0.2540329396724701,-0.1228674650192261,0.5012459754943848,0.1343916058540344,2,0.1651832461357117,0.5716983675956726,-0.4437784254550934,0.670026957988739,0.9127161502838135,0.2860603332519531,-0.2917509377002716,16.54344940185547,17.03042793273926,11.31561279296875,2,1
1562614363.033193,245,0,309626.479115875,-0.9602157722001089,1.258397448345925,-0.3096257024511933,-0.01804965175688267,-0.01308819465339184,-0.7190945148468018,0.01425331830978394,0.6040325164794922,0.09946423768997192,2,0.1579887568950653,0.5733025670051575,-0.4494439363479614,0.6666061878204346,0.9063482284545898,0.3047021627426147,-0.2927274405956268,16.27951812744141,17.6312427520752,10.97369384765625,2,1
1562614363.071541,246,0,309626.514088875,-0.9772986656364389,1.257719898858221,-0.3456338437956778,0.1165384277701378,0.1886387020349503,-1.366251111030579,0.06278371810913086,0.5859918594360352,0.09507513046264648,2,0.1492311954498291,0.5769259929656982,-0.4632874429225922,0.6559353470802307,0.8951261639595032,0.3387930989265442,-0.2897728979587555,15.94935989379883,18.44290542602539,11.06094360351562,2,1
1562614363.098816,247,0,309626.549031875,-0.9858353208762279,1.263327907233865,-0.4023810504154253,-0.5393094420433044,0.2232201993465424,-1.624645352363586,0.0007162094116210938,0.1031179428100586,0.07143217325210571,2,0.13170425593853,0.5860176086425781,-0.4781433045864105,0.64079350233078,0.8769795894622803,0.391610324382782,-0.2784746885299683,14.83826065063477,20.41249847412109,11.21380615234375,2,1
1562614363.148276,248,0,309626.583974875,-0.9738074486659932,1.273545984911493,-0.4574635510588494,-0.8434139490127563,0.1575863808393478,-1.328326225280762,0.0624234676361084,0.06756269931793213,-0.03098320960998535,2,0.1098454222083092,0.5971148014068604,-0.4855493903160095,0.6289910078048706,0.8578304648399353,0.4416739046573639,-0.2627758085727692,13.59241676330566,22.20221900939941,12.11627197265625,2,1
1562614363.164867,249,0,309626.618916875,-0.9480056742860103,1.279790578042035,-0.5075145226470963,-1.098815083503723,-0.4340934753417969,-1.095263600349426,0.1125247478485107,-0.02073299884796143,-0.2105646729469299,2,0.08465024828910828,0.6061835885047913,-0.4877945184707642,0.6224406361579895,0.837210476398468,0.4860065579414368,-0.2507515847682953,12.62533378601074,23.30477905273438,12.78695678710938,2,1
1562614363.198796,250,0,309626.653890875,-0.9300168153215377,1.267810054770842,-0.5425678142175052,-0.3692708909511566,-0.4930421710014343,-0.6338979005813599,0.16240394115448,-0.1845638751983643,-0.1174002289772034,2,0.06290724128484726,0.6068624258041382,-0.4899593889713287,0.6226561069488525,0.8173771500587463,0.5163367390632629,-0.2555213570594788,12.17388916015625,24.13916015625,12.67962646484375,2,1
1562614363.23085,251,0,309626.68879625,-0.9517228141219931,1.271213235884034,-0.5460003917254,0.9471980333328247,0.9934453368186951,-0.0655476450920105,0.08546352386474609,-0.2418065071105957,0.0435834527015686,2,0.06902676820755005,0.6075594425201416,-0.4972714185714722,0.615490198135376,0.8165438175201416,0.5192732810974121,-0.2522136569023132,11.78267097473145,24.2303352355957,12.6658935546875,2,1
1562614363.264783,252,0,309626.72376925,-1.005594432560445,1.299240971778602,-0.5292798115646404,1.535129547119141,1.763452410697937,0.1244134455919266,-0.08601236343383789,-0.1845212578773499,0.01021689176559448,2,0.09882592409849167,0.6119388937950134,-0.5090011358261108,0.5972287058830261,0.8315399885177612,0.5049118399620056,-0.2315284609794617,11.42761039733887,24.6722469329834,12.93453979492188,2,1
1562614363.312791,253,0,309626.75871125,-1.057688933099551,1.326292283673208,-0.5136558706414207,1.187530517578125,1.265407800674438,0.09441735595464706,-0.2436878085136414,-0.1430343091487885,-0.02190500497817993,2,0.1275729238986969,0.6150666475296021,-0.5195721387863159,0.5791917443275452,0.8450497388839722,0.4913646280765533,-0.210836336016655,10.83215141296387,25.25582504272461,13.48007202148438,2,1
1562614363.331148,254,0,309626.79365425,-1.085865856427001,1.336100756146792,-0.5051766278592419,0.4836809039115906,0.3446106016635895,0.03484464809298515,-0.2850462794303894,-0.1045799255371094,0.008644759654998779,2,0.1419111043214798,0.6149078011512756,-0.5252630114555359,0.5708314180374146,0.8510987162590027,0.4839619994163513,-0.2034992724657059,10.57806777954102,25.37762641906738,13.67352294921875,2,1
1562614363.362745,255,0,309626.82859725,-1.088048572171877,1.334223023010304,-0.5094371262103328,-0.2280047088861465,-0.1695007830858231,-0.2432965487241745,-0.2550166249275208,-0.05003073811531067,0.06711524724960327,2,0.1405310332775116,0.6147723793983459,-0.5268936157226562,0.569814920425415,0.8487027287483215,0.4876859188079834,-0.2046118974685669,10.7781925201416,25.45107269287109,13.57537841796875,2,1
1562614363.396435,256,0,309626.86357025,-1.066040041611953,1.334848446073396,-0.5302742166905414,-0.9023615121841431,-0.3699268996715546,-0.5486553311347961,-0.1744163036346436,-0.0468602180480957,-0.00141751766204834,2,0.1262671500444412,0.6190524101257324,-0.524848461151123,0.5704076290130615,0.8387666940689087,0.5057699084281921,-0.2016614377498627,10.54167938232422,25.77835845947266,13.43173217773438,2,1
1562614363.428618,257,0,309626.89848225,-1.024647927039397,1.33525764986796,-0.5605151519433828,-1.291789293289185,-0.7315188050270081,-0.6111682057380676,-0.08157682418823242,-0.1108461022377014,-0.1317647695541382,2,0.1023311614990234,0.6250597238540649,-0.5191987752914429,0.5738129615783691,0.8235951662063599,0.531622588634491,-0.1976573467254639,10.10931396484375,25.95810890197754,13.826904296875,2,1
1562614363.470977,258,0,309626.93345525,-0.9825709590011962,1.331783785756892,-0.5919032957873513,-1.09108829498291,-0.7239246368408203,-0.6541620492935181,-0.02485615015029907,-0.1518151760101318,-0.1514473557472229,2,0.07654576003551483,0.6292109489440918,-0.5137085318565369,0.5782196521759033,0.8062887191772461,0.5579415559768677,-0.1964686512947083,9.919380187988281,26.03286170959473,13.978759765625,2,1
1562614363.49437,259,0,309626.96839825,-0.9554270602339895,1.32737098445404,-0.6209951835352285,-0.6453024744987488,-0.46495720744133,-0.6571682095527649,0.1089631319046021,-0.07368427515029907,-0.1767136454582214,2,0.05594188719987869,0.6315507292747498,-0.51198410987854,0.5795571804046631,0.7893222570419312,0.5818448066711426,-0.1960283666849136,9.620918273925781,26.2805347442627,14.17465209960938,2,1
1562614363.529333,260,0,309627.00334025,-0.9490893314852225,1.322742137592773,-0.6491903080010434,-0.193132072687149,-0.1362017095088959,-0.8145333528518677,0.2447313070297241,0.07424139976501465,-0.1848440170288086,2,0.04212316498160362,0.6328024864196777,-0.5159980654716492,0.5757887959480286,0.772192120552063,0.6045415997505188,-0.1955733001232147,9.396575927734375,26.4876708984375,14.02633666992188,2,1
1562614363.560613,261,0,309627.00334025,-0.9490893314852225,1.322742137592773,-0.6491903080010434,-0.193132072687149,-0.1362017095088959,-0.8145333528518677,0.2447313070297241,0.07424139976501465,-0.1848440170288086,2,0.04212316498160362,0.6328024864196777,-0.5159980654716492,0.5757887959480286,0.772192120552063,0.6045415997505188,-0.1955733001232147,9.396575927734375,26.4876708984375,14.02633666992188,2,1
1562614363.594299,262,0,309627.03828325,-0.9569501837923896,1.317938793911875,-0.6792173344186913,0.04441904649138451,0.08411704748868942,-0.8904984593391418,0.3646600246429443,0.0327446460723877,-0.1508554220199585,2,0.0320240817964077,0.6337583065032959,-0.524295449256897,0.5678373575210571,0.7533234357833862,0.6281842589378357,-0.1946497410535812,8.313320159912109,27.51207733154297,13.8607177734375,2,1
1562614363.631386,263,0,309627.07325625,-0.9827637475894787,1.314439092664028,-0.7036738413409274,0.5788795948028564,0.6209498047828674,-0.7215387225151062,0.4799036383628845,0.07599258422851562,-0.09705978631973267,2,0.03004577569663525,0.6343751549720764,-0.536298930644989,0.5559216141700745,0.7375527620315552,0.6470232605934143,-0.1933308243751526,7.479454040527344,28.42719268798828,13.6519775390625,2,1
1562614363.660198,264,0,309627.10816825,-1.011790789615984,1.325616010862645,-0.7174016437124002,0.3086946904659271,0.8681980967521667,-0.43702232837677,0.4301857352256775,-0.02177011966705322,-0.1196196675300598,2,0.03714126721024513,0.6380983591079712,-0.5466344952583313,0.5409637689590454,0.7309815883636475,0.6574289798736572,-0.1829020231962204,6.470373153686523,29.20879364013672,13.82839965820312,2,1
1562614363.706317,265,0,309627.14314125,-1.002995889520895,1.346441658624894,-0.7227203695566147,-0.4401748180389404,0.07880178093910217,0.1218750551342964,0.2873768210411072,-0.3044856786727905,-0.1924404501914978,2,0.03801304847002029,0.6443019509315491,-0.5448719263076782,0.5352987051010132,0.7312124967575073,0.6614274382591248,-0.1668600142002106,5.940505981445312,29.14896774291992,14.30331420898438,2,1
1562614363.726547,266,0,309627.17805325,-0.9830339193285611,1.339619103067266,-0.7043040790493152,-0.152341902256012,-0.8348808288574219,0.8448336720466614,0.288670539855957,-0.1890292167663574,-0.141648530960083,2,0.0366455651819706,0.6413687467575073,-0.5360738635063171,0.5476568937301636,0.7417895197868347,0.647503674030304,-0.1746064722537994,6.255012512207031,29.09643363952637,14.195556640625,2,1
1562614363.758557,267,0,309627.21302725,-0.9694709160298908,1.313879326545285,-0.672200587183591,-0.05974139645695686,-0.9901854991912842,1.003098607063293,0.3145813345909119,0.0333372950553894,-0.02815306186676025,2,0.03756967186927795,0.6318052411079407,-0.5265525579452515,0.5675852298736572,0.756771445274353,0.622709333896637,-0.1988213211297989,7.692964553833008,28.50249099731445,13.55343627929688,2,1
1562614363.795283,268,0,309627.24796925,-0.9540421960758493,1.298958617829552,-0.6359419223917916,-0.05984845012426376,-0.5099669098854065,1.151490569114685,0.1953839063644409,-0.08759093284606934,0.1071586608886719,2,0.04256170988082886,0.6246453523635864,-0.5152934193611145,0.5852174758911133,0.7749702930450439,0.5939355492591858,-0.2160133719444275,9.242938995361328,27.3207950592041,12.83926391601562,2,1
1562614363.824001,269,0,309627.28294225,-0.9410092697311176,1.297836478372875,-0.5900344760528032,0.1491874605417252,-0.129041001200676,1.45677125453949,0.06783813238143921,-0.1468600630760193,0.09874463081359863,2,0.05564161762595177,0.6204054355621338,-0.5022041201591492,0.5998267531394958,0.8001584410667419,0.5563896894454956,-0.2240022122859955,10.60013389587402,26.23902130126953,12.38992309570312,2,1
1562614363.87209,270,0,309627.31785425,-0.9322303302327216,1.298738598134222,-0.5344293448737977,0.2251501232385635,-0.1609755754470825,1.654231786727905,-0.08098471164703369,-0.1562296152114868,0.0674433708190918,2,0.07424360513687134,0.6155206561088562,-0.4878749549388885,0.614491879940033,0.8289080858230591,0.509350061416626,-0.2312444150447845,11.3934211730957,25.43266487121582,12.00469970703125,2,1
1562614363.889889,271,0,309627.35282825,-0.9210872429345053,1.293888467170202,-0.4730231727734978,0.216033548116684,-0.3349784314632416,1.809134483337402,-0.1255885362625122,-0.06104353070259094,0.09973597526550293,2,0.09294077754020691,0.6080132126808167,-0.4712728559970856,0.6321265697479248,0.8562835454940796,0.4555795788764954,-0.2433638870716095,13.03187561035156,23.68826484680176,11.62472534179688,2,1
1562614363.923754,272,0,309627.38774025,-0.9120601352930668,1.286722331843612,-0.4084724520316519,0.3438818454742432,-0.2730112075805664,1.837832927703857,-0.1442422270774841,0.1177842020988464,0.1444365382194519,2,0.1130028143525124,0.5988531112670898,-0.4542590081691742,0.6498109102249146,0.8809476494789124,0.3972079157829285,-0.2572106420993805,14.88374328613281,21.20871925354004,10.79690551757812,2,1
1562614363.955726,273,0,309627.42271325,-0.908603463057558,1.28440086486185,-0.3457067370532128,0.441633403301239,0.008293099701404572,1.675481200218201,-0.183815598487854,0.2359176278114319,0.1659792065620422,2,0.1351682096719742,0.5906252264976501,-0.4387414455413818,0.6636244058609009,0.9025143980979919,0.3388616740703583,-0.2657828032970428,15.93363189697266,18.9353141784668,10.24111938476562,2,1
1562614363.98977,274,0,309627.45765525,-0.9073428929457135,1.289764459197076,-0.2916469945270558,0.3542892336845398,0.1687292158603668,1.38051962852478,-0.2856827974319458,0.2726038098335266,0.1396171450614929,2,0.1562705487012863,0.5854586958885193,-0.4250433146953583,0.6724253296852112,0.9201980233192444,0.2875300645828247,-0.2656352519989014,17.24726867675781,16.99341011047363,9.86627197265625,2,1
1562614364.031833,275,0,309627.49262925,-0.9050989653305145,1.292915700206769,-0.248935373503667,0.2563080787658691,0.01526993326842785,1.083163142204285,-0.3441739082336426,0.3025335073471069,0.1208776831626892,2,0.1722303777933121,0.5808661580085754,-0.4135838747024536,0.6796172261238098,0.9319967031478882,0.2463722825050354,-0.2658624053001404,17.46579360961914,16.26770401000977,9.79205322265625,2,1
1562614364.055522,276,0,309627.52754125,-0.9064397531677323,1.292903774658908,-0.2196895574479568,0.2822084724903107,0.02115744911134243,0.6090095639228821,-0.3500292301177979,0.4525322318077087,0.1273598074913025,2,0.1834900081157684,0.5765963196754456,-0.4067732095718384,0.6844002604484558,0.93852299451828,0.2179266512393951,-0.2677361965179443,18.05933380126953,14.92136478424072,9.51361083984375,2,1
1562614364.087513,277,0,309627.56251425,-0.9160139180355273,1.293659382409194,-0.2130330128651483,0.3079516589641571,0.1106471195816994,-0.2010513544082642,-0.298856258392334,0.6131171584129333,0.09620338678359985,2,0.188867062330246,0.5749958753585815,-0.4083126485347748,0.6833665370941162,0.9400994777679443,0.211425319314003,-0.2674179375171661,18.34049606323242,14.60197448730469,9.373504638671875,2,1
1562614364.121459,278,0,309627.59742625,-0.9277846479701684,1.294576532876649,-0.2357109081019444,0.00096083153039217,0.0614050030708313,-0.9272202849388123,-0.2226676344871521,0.487338662147522,0.04834097623825073,2,0.1840559244155884,0.5775237083435059,-0.4178627133369446,0.6767425537109375,0.9354899525642395,0.2335342913866043,-0.2651795744895935,17.97199630737305,15.47175598144531,9.270355224609375,2,1
1562614364.154026,279,0,309627.59742625,-0.9277846479701684,1.294576532876649,-0.2357109081019444,0.00096083153039217,0.0614050030708313,-0.9272202849388123,-0.2226676344871521,0.487338662147522,0.04834097623825073,2,0.1840559244155884,0.5775237083435059,-0.4178627133369446,0.6767425537109375,0.9354899525642395,0.2335342913866043,-0.2651795744895935,17.97199630737305,15.47175598144531,9.270355224609375,2,1
1562614364.191336,280,0,309627.63239925,-0.9427182120001723,1.291678263981614,-0.2758643998894675,0.2670937776565552,0.07933185249567032,-1.421458005905151,-0.06710964441299438,0.6616116166114807,0.02727186679840088,2,0.172882154583931,0.5810045003890991,-0.4329257905483246,0.6671738624572754,0.9249523282051086,0.2723787426948547,-0.2650910615921021,17.17047119140625,17.14358711242676,9.34857177734375,2,1
1562614364.219167,281,0,309627.66734225,-0.9722769285573829,1.289412156012376,-0.3404112617229239,0.115943968296051,0.1734812557697296,-2.346124649047852,0.03954708576202393,0.6509085297584534,0.01152640581130981,2,0.1570218503475189,0.5869143605232239,-0.4580386877059937,0.6489039063453674,0.9055461883544922,0.3338747918605804,-0.2617513537406921,16.52214050292969,18.35093688964844,9.233428955078125,2,1
1562614364.271691,282,0,309627.7023305,-0.9815531213381858,1.285410487176978,-0.4329410530881855,-0.8116307258605957,-0.1294113993644714,-2.562860488891602,0.0702139139175415,0.1093949675559998,-0.01759159564971924,2,0.124257393181324,0.5973137617111206,-0.4820074737071991,0.6288442015647888,0.8710205554962158,0.4195423126220703,-0.255552738904953,14.68332672119141,21.82757186889648,9.61077880859375,2,1
1562614364.285232,283,0,309627.7372425,-0.9750856444645619,1.284598374578071,-0.5094299282415597,-0.6284428834915161,-0.01660497672855854,-1.728616118431091,0.1551774144172668,-0.1283934712409973,-0.0271269679069519,2,0.09331914782524109,0.6066806316375732,-0.4963529706001282,0.6138923764228821,0.8375117182731628,0.4876796305179596,-0.2464602887630463,12.83460807800293,24.32003784179688,10.28118896484375,2,1
1562614364.319606,284,0,309627.7722155,-0.9805748195335159,1.288514105818267,-0.5609095008290074,-0.1648855358362198,0.2477385550737381,-1.388585567474365,0.1822248101234436,0.008479595184326172,-0.09082150459289551,2,0.07652496546506882,0.6133600473403931,-0.5084394216537476,0.5995187163352966,0.8132582902908325,0.5319565534591675,-0.2358667701482773,11.52519416809082,26.21776580810547,10.64547729492188,2,1
1562614364.351789,285,0,309627.8071275,-0.9912644773916819,1.289927784723071,-0.6087967030392157,-0.09372102469205856,0.230606734752655,-1.336702227592468,0.1664143800735474,-0.1120741963386536,-0.06600445508956909,2,0.06207383051514626,0.6184271574020386,-0.5210809707641602,0.5849524736404419,0.7881919741630554,0.5718807578086853,-0.2273893803358078,10.97385215759277,26.98678588867188,10.68896484375,2,1
1562614364.385226,286,0,309627.8421005,-1.015179874410304,1.296209601818964,-0.6437518608600571,0.5017740726470947,0.8392434120178223,-0.9654826521873474,0.1174003481864929,-0.3131405115127563,0.01312923431396484,2,0.05795801058411598,0.6230582594871521,-0.5345032215118408,0.5681070685386658,0.7698850631713867,0.6002005934715271,-0.2168785482645035,9.624477386474609,28.40463638305664,10.95809936523438,2,1
1562614364.431254,287,0,309627.8770435,-1.060464940561451,1.308849866420245,-0.6605896218122096,0.9980451464653015,1.228195548057556,-0.6328994035720825,0.002322554588317871,-0.3634952306747437,-0.0005328059196472168,2,0.06921776384115219,0.62687087059021,-0.5498680472373962,0.5476194024085999,0.7626945972442627,0.6135825514793396,-0.2044836282730103,8.363319396972656,29.15693283081055,11.16616821289062,2,1
1562614364.451011,288,0,309627.9120165,-1.106337410072916,1.316731780908292,-0.6704297353046187,0.8312442302703857,0.8538286089897156,-0.5029227137565613,-0.06743538379669189,-0.3434497714042664,-0.01227444410324097,2,0.08214534074068069,0.6283174157142639,-0.5637018084526062,0.529820442199707,0.7584017515182495,0.6213227510452271,-0.1969387382268906,7.231021881103516,30.02497673034668,11.0311279296875,2,1
1562614364.48297,289,0,309627.9469285,-1.133992663022471,1.314317865371026,-0.6826829915632815,0.3064145445823669,0.1811570525169373,-0.4944514632225037,-0.04488784074783325,-0.2773056030273438,0.0124509334564209,2,0.08560935407876968,0.627901017665863,-0.5731964707374573,0.5194777846336365,0.7505032420158386,0.6308769583702087,-0.1968227028846741,6.622142791748047,30.80565071105957,10.68875122070312,2,1
1562614364.516817,290,0,309627.9819015,-1.135366444612068,1.307503449173123,-0.700265833390145,-0.327088326215744,-0.3173205852508545,-0.4893957674503326,0.0583459734916687,-0.2182034254074097,0.01624470949172974,2,0.07757576555013657,0.6280723214149475,-0.5768126249313354,0.5165215134620667,0.7383190989494324,0.6444209814071655,-0.1990143209695816,6.471410751342773,30.93317985534668,10.65200805664062,2,1
1562614364.549279,291,0,309628.0168145,-1.1119942610942,1.309828076671375,-0.7207556591946165,-0.7969179749488831,-0.3930557072162628,-0.3816609382629395,0.1500359773635864,-0.2521992325782776,-0.03828281164169312,2,0.06327828764915466,0.6317207813262939,-0.5741328001022339,0.5170071125030518,0.7258685827255249,0.6599525809288025,-0.1938494294881821,5.694368362426758,31.25357055664062,10.79342651367188,2,1
