loggingTime,loggingSample,identifierForVendor,motionTimestamp_sinceReboot,motionYaw,motionRoll,motionPitch,motionRotationRateX,motionRotationRateY,motionRotationRateZ,motionUserAccelerationX,motionUserAccelerationY,motionUserAccelerationZ,motionAttitudeReferenceFrame,motionQuaternionX,motionQuaternionY,motionQuaternionZ,motionQuaternionW,motionGravityX,motionGravityY,motionGravityZ,motionMagneticFieldX,motionMagneticFieldY,motionMagneticFieldZ,motionMagneticFieldCalibrationAccuracy,label
1562614309.620591,1,0,309573.0781432917,-0.605896768001045,0.2651722010434421,0.5663703477559202,0.8554956316947937,0.4668185114860535,0.2878757119178772,0.05612894892692566,0.06124687194824219,0.1397831439971924,2,0.3022189140319824,0.03852427378296852,-0.2486828714609146,0.9194218516349792,0.2211534529924393,-0.5365726947784424,-0.814359188079834,4.972263336181641,-19.34716987609863,-25.63534545898438,2,1
1562614309.652607,2,0,309573.1131172917,-0.6090299835958771,0.2563957485077444,0.5847392153771269,0.1721692681312561,-0.6956936120986938,0.005798252765089273,0.1003812253475189,0.068492591381073,0.1824213266372681,2,0.3094110488891602,0.03108072280883789,-0.2495977133512497,0.9170604944229126,0.2114623934030533,-0.5519819259643555,-0.8065975904464722,4.861860275268555,-20.08610343933105,-25.2239990234375,2,1
1562614309.686492,3,0,309573.1480292917,-0.593771227208471,0.2174506997938838,0.5701695801763863,-0.7640624642372131,-0.8113202452659607,0.4102590382099152,0.06850895285606384,0.124919593334198,-0.01210606098175049,2,0.2978102266788483,0.01778722368180752,-0.2498956024646759,0.9211649894714355,0.1816128641366959,-0.5397748351097107,-0.8219853639602661,3.59168815612793,-20.06109428405762,-26.36434936523438,2,1
1562614309.719198,4,0,309573.1830022917,-0.5700963580561553,0.1911817414852463,0.5539636517897546,-0.3300633728504181,-0.1209004521369934,0.4710057079792023,0.03525228798389435,0.1503610610961914,-0.05269849300384521,2,0.2870379388332367,0.01155772525817156,-0.2442040741443634,0.9261965751647949,0.1616011261940002,-0.5260622501373291,-0.8349512815475464,2.910045623779297,-19.60378074645996,-26.76473999023438,2,1
1562614309.752596,5,0,309573.2179442917,-0.5549916051361844,0.1832757603467775,0.5642039279507637,0.4827924370765686,-0.05939052999019623,0.3623202443122864,0.006562888622283936,0.1067960858345032,0.06117814779281616,2,0.2906804084777832,0.008589782752096653,-0.2375161051750183,0.926831841468811,0.1540051251649857,-0.5347433090209961,-0.8308622241020203,2.345283508300781,-19.76619911193848,-27.20770263671875,2,1
1562614309.785846,6,0,309573.2529182917,-0.5487480981899127,0.1702914200033023,0.5870476104984448,0.633025050163269,-0.3225385546684265,0.2269920110702515,0.005936577916145325,0.0927245020866394,0.1303662061691284,2,0.2995522618293762,0.000253052799962461,-0.2347318083047867,0.924753725528717,0.141096904873848,-0.5539053678512573,-0.820536732673645,1.983829498291016,-20.65961265563965,-26.80563354492188,2,1
1562614309.818448,7,0,309573.2878302917,-0.5415818086647591,0.1596055539045294,0.6062793919104865,0.4318884909152985,-0.09552228450775146,0.3114513456821442,-0.05154794454574585,0.08374619483947754,0.2043798565864563,2,0.3070764541625977,-0.006286811549216509,-0.2315543293952942,0.9230639934539795,0.1306035071611404,-0.5698139071464539,-0.8113290667533875,1.477663040161133,-21.49215507507324,-26.55572509765625,2,1
1562614309.851116,8,0,309573.3228032917,-0.5282333949824415,0.1472433404346368,0.6154997084101268,0.1078777238726616,-0.2016738951206207,0.3521754145622253,-0.0366126149892807,0.04961198568344116,0.2322713136672974,2,0.3099187314510345,-0.01119518373161554,-0.2266093343496323,0.9232948422431946,0.1197880432009697,-0.5773665904998779,-0.807650089263916,0.9914169311523438,-22.09490013122559,-26.43133544921875,2,1
1562614309.884154,9,0,309573.3577462917,-0.516949852362247,0.1279802477258926,0.6188322863716396,0.0463070459663868,-0.4162648916244507,0.217800185084343,-0.01491270959377289,-0.005302548408508301,0.1995263695716858,2,0.3093536794185638,-0.01878714375197887,-0.2241447567939758,0.9239623546600342,0.1039627864956856,-0.5800843834877014,-0.8078947067260742,0.5511512756347656,-22.1683521270752,-26.50820922851562,2,1
1562614309.916231,10,0,309573.3577462917,-0.516949852362247,0.1279802477258926,0.6188322863716396,0.0463070459663868,-0.4162648916244507,0.217800185084343,-0.01491270959377289,-0.005302548408508301,0.1995263695716858,2,0.3093536794185638,-0.01878714375197887,-0.2241447567939758,0.9239623546600342,0.1039627864956856,-0.5800843834877014,-0.8078947067260742,0.5511512756347656,-22.1683521270752,-26.50820922851562,2,1
1562614309.95283,11,0,309573.3927192917,-0.5120856854893553,0.1120604540777042,0.6202426823664482,0.02015768364071846,-0.3419102132320404,0.06147639825940132,-0.003533869981765747,-0.0209389328956604,0.1184322834014893,2,0.3082680404186249,-0.02557448670268059,-0.2242619097232819,0.9241338968276978,0.09099705517292023,-0.5812326669692993,-0.8086335062980652,0.07051467895507812,-22.18841361999512,-26.73382568359375,2,1
1562614309.982647,12,0,309573.4276312917,-0.5091262396428884,0.1026889235145903,0.6240528589135872,0.1484168171882629,-0.1103238165378571,0.0952722430229187,-0.04206517338752747,-0.01202899217605591,0.09801304340362549,2,0.309003084897995,-0.02993491478264332,-0.2240996658802032,0.9237967729568481,0.08318742364645004,-0.5843288898468018,-0.8072419762611389,-0.3627281188964844,-22.19822883605957,-26.79962158203125,2,1
1562614310.021105,13,0,309573.4626042917,-0.5052148665498293,0.1067340451965664,0.6286340380591061,0.050155159085989,0.3039894998073578,0.07322884351015091,-0.06172166764736176,0.004637300968170166,0.09065103530883789,2,0.3116076290607452,-0.02804149128496647,-0.2213783711194992,0.9236373901367188,0.08616603910923004,-0.5880404710769653,-0.8042287230491638,-0.1895599365234375,-22.3675594329834,-26.4617919921875,2,1
1562614310.048068,14,0,309573.4975162917,-0.511463356444773,0.1210744309369003,0.6165165049431377,-0.6075295805931091,0.2202591449022293,-0.3281420469284058,-0.01964017003774643,-0.04875540733337402,-0.03368830680847168,2,0.3075771033763885,-0.02083166129887104,-0.2228296995162964,0.924829363822937,0.09854315966367722,-0.5781965255737305,-0.8099247217178345,0.05968284606933594,-22.46073722839355,-26.28860473632812,2,1
1562614310.081979,15,0,309573.5324892917,-0.5216171841536994,0.1389424147512488,0.5829992026399435,-0.9506559371948242,0.4868499934673309,-0.338504821062088,0.05003072321414948,-0.06305485963821411,-0.07024866342544556,2,0.2941445708274841,-0.009689362719655037,-0.2271133959293365,0.9283343553543091,0.1156184077262878,-0.5505301952362061,-0.8267701864242554,0.6468887329101562,-21.10601615905762,-26.79415893554688,2,1
1562614310.113963,16,0,309573.5674322917,-0.5265422519979666,0.1338241807218542,0.5538939323169177,-0.7877663969993591,-0.9417144656181335,-0.1865241676568985,0.1007878854870796,-0.1270718574523926,-0.1672995090484619,2,0.2801456451416016,-0.008897404186427593,-0.2321120798587799,0.9314307570457458,0.1134757474064827,-0.5260029435157776,-0.842878520488739,1.007394790649414,-19.80586051940918,-27.31539916992188,2,1
1562614310.147939,17,0,309573.6024052917,-0.5353913066382014,0.07956002564643243,0.522975076877759,-0.9386080503463745,-1.780938267707825,-0.3952087163925171,0.11109359562397,-0.1057634353637695,-0.3763787150382996,2,0.2592747807502747,-0.0312771201133728,-0.2454011589288712,0.9335826635360718,0.06885311007499695,-0.4994597733020782,-0.8635966777801514,-0.6530818939208984,-18.48458290100098,-28.89395141601562,2,1
1562614310.187056,18,0,309573.637306,-0.5486546298409304,0.06624737536067504,0.4993493352268031,-0.2984126806259155,0.3830465078353882,-0.3282477259635925,0.00987735390663147,0.06076490879058838,-0.2883383631706238,2,0.246412381529808,-0.03600867837667465,-0.2544786334037781,0.9344651103019714,0.05811566486954689,-0.4788544178009033,-0.8759686350822449,-1.240711212158203,-17.22706031799316,-30.1019287109375,2,1
1562614310.213848,19,0,309573.672279,-0.5622034006605285,0.1142610607849937,0.5182148379803867,0.9458299875259399,0.9693107008934021,-0.270676851272583,-0.001936644315719604,0.05242994427680969,0.06955230236053467,2,0.2610712349414825,-0.01793541759252548,-0.2536607384681702,0.9312230944633484,0.09904329478740692,-0.4953301548957825,-0.8630402684211731,-0.3073978424072266,-17.23407173156738,-29.54666137695312,2,1
1562614310.24584,20,0,309573.707222,-0.5723767306504925,0.1065726119150599,0.549127742412897,0.6841482520103455,-1.034982085227966,-0.05259508639574051,0.05218122899532318,-0.02865326404571533,0.1414447426795959,2,0.2742027044296265,-0.02724896930158138,-0.2574849426746368,0.9261597394943237,0.09073233604431152,-0.5219433903694153,-0.8481407165527344,0.5735759735107422,-18.22532081604004,-28.35736083984375,2,1
1562614310.279749,21,0,309573.742164,-0.5669811267606004,0.06270282731278423,0.5547350626561215,-0.05967669188976288,-0.9429087042808533,0.2301770001649857,0.006808698177337646,0.07084804773330688,0.03010129928588867,2,0.2711985409259796,-0.04760865122079849,-0.2606450319290161,0.9253371953964233,0.05326499417424202,-0.5267181396484375,-0.8483695387840271,-0.9652843475341797,-18.8377628326416,-28.91238403320312,2,1
1562614310.312345,22,0,309573.777107,-0.5598468177685,0.05873169600540565,0.554721328176519,0.09142810106277466,0.4326891303062439,0.0897163599729538,-0.07411184906959534,0.06810504198074341,0.1048067808151245,2,0.2708487808704376,-0.04847810417413712,-0.2578815519809723,0.9261685013771057,0.04989602044224739,-0.5267064571380615,-0.8485816121101379,-1.53564453125,-18.82519340515137,-29.18923950195312,2,1
1562614310.351197,23,0,309573.81208,-0.5613524653112157,0.08783487140267221,0.5677901086416863,0.5163711309432983,0.9816704392433167,-0.01071235071867704,-0.08459322154521942,0.09619760513305664,0.2857179641723633,2,0.2805513739585876,-0.0370168425142765,-0.2538450360298157,0.9249235391616821,0.0739576518535614,-0.5377702116966248,-0.839841365814209,-1.234195709228516,-18.92117500305176,-28.81832885742188,2,1
1562614310.377585,24,0,309573.846992,-0.5515284035236172,0.1360703829830639,0.5816037120924681,0.1505082100629807,1.82190990447998,0.4458567798137665,-0.056325763463974,0.1229135990142822,0.2862784862518311,2,0.2929824888706207,-0.01522061321884394,-0.2414913028478622,0.9249927997589111,0.1133475303649902,-0.5493646860122681,-0.8278591632843018,0.1859226226806641,-19.54514122009277,-27.3721923828125,2,1
1562614310.431162,25,0,309573.881965,-0.523211907307179,0.2080751837339442,0.5593174414887865,-1.438216209411621,3.192322015762329,0.609789252281189,-0.04814568161964417,0.07788115739822388,0.2108191251754761,2,0.2910098135471344,0.02541564591228962,-0.2195499986410141,0.9308410882949829,0.1750982701778412,-0.5306077599525452,-0.8293346762657166,2.108774185180664,-19.72552680969238,-25.44271850585938,2,1
1562614310.44347,26,0,309573.916908,-0.4640507104235637,0.3747688590529877,0.4831313978834098,-2.698914051055908,6.593298435211182,0.9212007522583008,-0.0234103798866272,-0.0395641028881073,0.09413039684295654,2,0.2703305780887604,0.1219874322414398,-0.1759933978319168,0.9386515021324158,0.3241601586341858,-0.4645544290542603,-0.8240808844566345,7.111970901489258,-18.15081596374512,-22.45465087890625,2,1
1562614310.477457,27,0,309573.951881,-0.4129301240511994,0.6172823567150894,0.44258223613933,-0.8770222067832947,8.229703903198242,0.5366470813751221,0.02115213871002197,-0.2118153870105743,0.07169204950332642,2,0.265430212020874,0.2471933960914612,-0.1252946406602859,0.9234411120414734,0.5230510830879211,-0.4282743334770203,-0.7368844747543335,13.55014228820801,-17.26360893249512,-14.80953979492188,2,1
1562614310.50968,28,0,309573.951881,-0.4129301240511994,0.6172823567150894,0.44258223613933,-0.8770222067832947,8.229703903198242,0.5366470813751221,0.02115213871002197,-0.2118153870105743,0.07169204950332642,2,0.265430212020874,0.2471933960914612,-0.1252946406602859,0.9234411120414734,0.5230510830879211,-0.4282743334770203,-0.7368844747543335,13.55014228820801,-17.26360893249512,-14.80953979492188,2,1
1562614310.543845,29,0,309573.986793,-0.4407786245719619,0.7414257756530449,0.4545687481626087,0.5100169777870178,2.525418996810913,-0.5812552571296692,-0.07456547021865845,0.1225632131099701,0.07966512441635132,2,0.2821066081523895,0.2985119223594666,-0.1188599765300751,0.9039794206619263,0.6067596673965454,-0.4390749037265778,-0.6626129746437073,15.10300064086914,-17.45783424377441,-11.96713256835938,2,1
1562614310.592011,30,0,309574.021767,-0.4229722458811808,0.8313020168554494,0.4284091374839057,-1.277254343032837,2.809952259063721,-0.1341916024684906,0.03890907764434814,-0.09434011578559875,0.136233925819397,2,0.2729606330394745,0.3449447154998779,-0.1037304401397705,0.892045795917511,0.6720415949821472,-0.4154242277145386,-0.6130113005638123,16.56534194946289,-16.88308906555176,-8.12384033203125,2,1
1562614310.609301,31,0,309574.056679,-0.3881563174002666,0.907928603764071,0.4094929632215086,-0.8595942258834839,2.483363389968872,0.3301410973072052,0.0984535813331604,-0.2322408258914948,-0.06385636329650879,2,0.2621049582958221,0.3860699534416199,-0.0822199285030365,0.8806196451187134,0.7230620980262756,-0.3981442749500275,-0.564501941204071,17.74185180664062,-16.82397270202637,-4.76190185546875,2,1
1562614310.641265,32,0,309574.091652,-0.3664447072841834,0.9863840543401697,0.4073900445139681,-0.4054253697395325,2.689071416854858,0.2230977863073349,0.203321099281311,-0.232125997543335,-0.1087255477905273,2,0.2596761584281921,0.4234266579151154,-0.06299887597560883,0.8656265139579773,0.7657772898674011,-0.3962143361568451,-0.5065563321113586,18.0126838684082,-16.95671653747559,-1.444488525390625,2,1
1562614310.675156,33,0,309574.126594,-0.3470175812663136,1.086298757253011,0.4080014475886594,-0.4032347798347473,3.065610647201538,0.3350901305675507,0.194729208946228,-0.1884739398956299,0.02665108442306519,2,0.2582049965858459,0.4685768187046051,-0.04159672930836678,0.8438220620155334,0.8122718930244446,-0.3967756330966949,-0.427531898021698,18.12818145751953,-16.9994068145752,0.31170654296875,2,1
1562614310.707133,34,0,309574.161568,-0.3020290879661278,1.150297198564635,0.417364820453551,-1.420172810554504,1.780768275260925,0.9341704845428467,0.03313422203063965,-0.172068864107132,0.2369272112846375,2,0.2519196569919586,0.4999489784240723,-0.01208809390664101,0.8285176157951355,0.8345234990119934,-0.4053528904914856,-0.3731750249862671,17.97189712524414,-17.96887397766113,4.08074951171875,2,1
1562614310.747091,35,0,309574.19648,-0.2132263595578862,1.175982827770599,0.4312213432374347,-1.921834588050842,2.293674945831299,1.423066258430481,0.374778687953949,0.02166551351547241,0.3743860125541687,2,0.2346614897251129,0.5198283791542053,0.03150882199406624,0.820804238319397,0.8385668396949768,-0.4179806411266327,-0.3494248688220978,16.72415542602539,-19.77585792541504,5.56036376953125,2,1
1562614310.773538,36,0,309574.231453,-0.1470335661505688,1.271248666225268,0.436430306357922,-1.35380220413208,4.054299831390381,0.05617536976933479,0.1099926829338074,0.2965642809867859,0.3046417236328125,2,0.2163091897964478,0.5652399063110352,0.07047301530838013,0.7929361462593079,0.8659104108810425,-0.4227070808410645,-0.2674283683300018,15.35393524169922,-21.57077217102051,8.194793701171875,2,1
1562614310.807078,37,0,309574.266395,-0.1162672699203152,1.376494328921309,0.3933688163445657,-0.9480214715003967,2.59606146812439,-1.15163266658783,-0.3544579148292542,0.07797509431838989,-0.004956662654876709,2,0.1868720054626465,0.6131162047386169,0.07990756630897522,0.7634018063545227,0.9062430858612061,-0.3833020925521851,-0.1783347427845001,14.99895095825195,-20.69436073303223,12.10113525390625,2,1
1562614310.838944,38,0,309574.301338,-0.07635390341092663,1.389161233905365,0.3717712776379908,-1.327835559844971,-0.09294815361499786,-0.01783191040158272,-0.4649308919906616,0.03482216596603394,-0.04624384641647339,2,0.1659044027328491,0.6231587529182434,0.08938847482204437,0.7590511441230774,0.9163588285446167,-0.3632662892341614,-0.1682977974414825,14.63051223754883,-20.5269947052002,12.62152099609375,2,1
1562614310.872924,39,0,309574.336281,-0.01095319282728645,1.322241755158053,0.3667059640179504,-2.04250431060791,-1.901619076728821,0.3622511625289917,-0.4051797986030579,0.2559130191802979,0.0732266902923584,2,0.1472159177064896,0.6029127836227417,0.1076974645256996,0.7766755223274231,0.9048256278038025,-0.3585423529148102,-0.2296472936868668,14.91348266601562,-20.98442649841309,10.90264892578125,2,1
1562614310.912176,40,0,309574.371254,0.09072319848192999,1.197725447089235,0.3527915935665101,-3.036541223526001,-2.819741487503052,0.5087865591049194,-0.4349296092987061,0.2239075005054474,-0.01446408033370972,2,0.1196303367614746,0.5609580278396606,0.1356918960809708,0.8078381419181824,0.8738608360290527,-0.3455188274383545,-0.342029333114624,14.72885513305664,-22.06853675842285,5.9117431640625,2,1
1562614310.939208,41,0,309574.406166,0.1953248059575671,1.048091382911358,0.3208653291941949,-2.767357349395752,-3.444028615951538,0.2579085230827332,-0.3774744272232056,0.3771718740463257,0.1042988896369934,2,0.08948396146297455,0.5050933361053467,0.1628913879394531,0.8428165912628174,0.8222497701644897,-0.3153878450393677,-0.4737466871738434,14.1954460144043,-22.79545783996582,-0.99688720703125,2,1
1562614310.985697,42,0,309574.441139,0.2810685169917777,0.9021471662153537,0.2710896724153171,-2.760656118392944,-3.577980995178223,0.08027036488056183,-0.4500830769538879,0.3499815165996552,0.08610057830810547,2,0.05991359427571297,0.4447100162506104,0.1832325905561447,0.8746824264526367,0.7560037970542908,-0.2677814662456512,-0.5972867012023926,12.81551742553711,-22.26485252380371,-7.638458251953125,2,1
1562614311.004598,43,0,309574.476082,0.3523805931802481,0.7549418502592533,0.204604667140228,-2.693788528442383,-3.74718713760376,-0.08829479664564133,-0.3596610426902771,0.432016909122467,0.1121360659599304,2,0.02919936738908291,0.3776075839996338,0.199145644903183,0.9038257002830505,0.6709530353546143,-0.2031800895929337,-0.7131198048591614,11.98563003540039,-21.56411552429199,-11.31417846679688,2,1
1562614311.036547,44,0,309574.511055,0.4092732757939052,0.6202434571953299,0.1205748614486344,-3.0748610496521,-3.423716306686401,-0.4583927094936371,-0.2187696695327759,0.5279371738433838,0.1277287602424622,2,-0.005722714122384787,0.3099237978458405,0.2111693024635315,0.9269962906837463,0.577013373374939,-0.120282918214798,-0.807828962802887,9.199419021606445,-19.6323184967041,-17.91323852539062,2,1
1562614311.073304,45,0,309574.545967,0.445350438959507,0.5118318037109022,-0.003924754814640406,-3.756392955780029,-2.777454137802124,-1.325363993644714,-0.0443999171257019,0.6435971856117249,0.1106110811233521,2,-0.05775294825434685,0.2464620620012283,0.2131623476743698,0.9436540603637695,0.4897713661193848,0.003924744669348001,-0.871842086315155,6.716190338134766,-15.24231910705566,-24.18777465820312,2,1
1562614311.102586,46,0,309574.545967,0.445350438959507,0.5118318037109022,-0.003924754814640406,-3.756392955780029,-2.777454137802124,-1.325363993644714,-0.0443999171257019,0.6435971856117249,0.1106110811233521,2,-0.05775294825434685,0.2464620620012283,0.2131623476743698,0.9436540603637695,0.4897713661193848,0.003924744669348001,-0.871842086315155,6.716190338134766,-15.24231910705566,-24.18777465820312,2,1
1562614311.147748,47,0,309574.58094,0.450781470595548,0.4259450429003281,-0.1417191026739018,-3.411823749542236,-2.31676459312439,-1.790460824966431,0.1485149264335632,0.638737678527832,-0.02925223112106323,2,-0.1145694777369499,0.1900376081466675,0.2033035308122635,0.9536389112472534,0.4090392887592316,0.1412451863288879,-0.9015190601348877,4.515291213989258,-9.414575576782227,-28.51388549804688,2,1
1562614311.169012,48,0,309574.615852,0.4211290455186387,0.3552013481877204,-0.2666372408135832,-2.810667276382446,-1.426689982414246,-2.361502170562744,0.408786803483963,0.8049911260604858,-0.2458242774009705,2,-0.1645416617393494,0.1438876390457153,0.180933952331543,0.9588979482650757,0.3354894816875458,0.2634890079498291,-0.9044447541236877,3.544727325439453,-6.527971267700195,-30.33636474609375,2,1
1562614311.202486,49,0,309574.6508406667,0.3490728958401177,0.319675232365641,-0.3901580039550654,-2.651047229766846,0.2696209847927094,-3.31680154800415,0.6043308973312378,0.6083568334579468,-0.3092168569564819,2,-0.2155794203281403,0.1205345839262009,0.1378032714128494,0.9591701030731201,0.2906414270401001,0.3803345561027527,-0.8779938817024231,2.730585098266602,-0.3641166687011719,-32.10372924804688,2,1
1562614311.23441,50,0,309574.6857836667,0.2349722921957736,0.3009485160395648,-0.5043887965724401,-1.892245173454285,1.104289889335632,-4.054352760314941,0.7164537906646729,0.8005233407020569,-0.5627733469009399,2,-0.2620248198509216,0.1152459979057312,0.07507717609405518,0.9552093744277954,0.2595122754573822,0.4832724332809448,-0.8361226916313171,3.534452438354492,6.416473388671875,-31.49978637695312,2,1
1562614311.268241,51,0,309574.7207566667,0.09030469978925626,0.2657469385298132,-0.5985958486179463,-1.546142935752869,1.147651553153992,-4.055455684661865,0.7458320260047913,0.5848754048347473,-0.5882339477539062,2,-0.2976665794849396,0.1132728010416031,0.003727533854544163,0.9479187726974487,0.2169659584760666,0.5634829998016357,-0.7971277832984924,3.746767044067383,12.6411304473877,-29.76315307617188,2,1
1562614311.300195,52,0,309574.7556686667,-0.03683763466583142,0.2454352484661977,-0.6775610890697837,-1.297438621520996,1.79815149307251,-2.985859632492065,0.6742340922355652,-0.3263913989067078,-0.2994215488433838,2,-0.3276555836200714,0.1215074434876442,-0.05791473016142845,0.9351596832275391,0.1893055588006973,0.6268947124481201,-0.7557555437088013,4.113122940063477,17.89536094665527,-27.693603515625,2,1
1562614311.334157,53,0,309574.7906416667,-0.130758523442647,0.2539284741862133,-0.7140426475620256,-0.01888640597462654,1.962388753890991,-1.876769661903381,0.5454462170600891,-0.2231652736663818,-0.3315789699554443,2,-0.3381802141666412,0.1410343050956726,-0.1048786416649818,0.9245237112045288,0.1898433566093445,0.654894232749939,-0.7314869165420532,4.665748596191406,19.6491870880127,-26.64410400390625,2,1
1562614311.366561,54,0,309574.8255846667,-0.2009432765893331,0.2602963551540334,-0.7220097296390969,0.03438934683799744,1.172537565231323,-1.380780577659607,0.3386345505714417,-0.04641103744506836,-0.2650985717773438,2,-0.3362827003002167,0.1559320986270905,-0.1386531591415405,0.9183542728424072,0.1931484937667847,0.6608942747116089,-0.7251982688903809,5.470390319824219,21.38977813720703,-25.20339965820312,2,1
1562614311.400129,55,0,309574.8605276667,-0.2459306659071349,0.2529671633756149,-0.7489602095285126,-0.7194476127624512,0.4313317239284515,-0.9616163969039917,0.3033143281936646,-0.254642128944397,-0.15483558177948,2,-0.3457264006137848,0.1610255241394043,-0.1590380370616913,0.9106322526931763,0.1833027750253677,0.6808775663375854,-0.7090880870819092,5.172334671020508,22.83745193481445,-24.11492919921875,2,1
1562614311.432092,56,0,309574.8954696667,-0.2717110684727069,0.2500398993155924,-0.7751574105183825,-0.4449175596237183,0.4862915873527527,-0.5985060930252075,0.2873136401176453,-0.4947389960289001,-0.04557502269744873,2,-0.3559070229530334,0.165170818567276,-0.171107292175293,0.9037538170814514,0.1767509430646896,0.6998285055160522,-0.6920976042747498,4.991111755371094,23.91561126708984,-23.50106811523438,2,1
1562614311.466995,57,0,309574.9304426667,-0.3002433598174687,0.2514976864012173,-0.7864114859764504,-0.0392448827624321,0.6702213287353516,-0.6974578499794006,0.2119821161031723,-0.5179921984672546,-0.01071953773498535,2,-0.3585249781608582,0.1713946461677551,-0.1845676898956299,0.8988984823226929,0.1757885217666626,0.7078229188919067,-0.6841674447059631,4.414821624755859,24.93935585021973,-22.89117431640625,2,1
1562614311.49811,58,0,309574.9653556667,-0.3369195630020601,0.2457223180839886,-0.792063990173492,0.01092876493930817,0.4840404391288757,-0.7637767791748047,0.1994716376066208,-0.4243630170822144,-0.02804207801818848,2,-0.3584758341312408,0.1756567060947418,-0.2001273185014725,0.8947563767433167,0.1708582937717438,0.7118045091629028,-0.6812795996665955,4.60484504699707,25.03614616394043,-22.49053955078125,2,1
1562614311.553212,59,0,309575.0003286667,-0.363748024450977,0.2343647177891641,-0.8038333322843424,-0.340486466884613,0.09419786185026169,-0.4539901614189148,0.2684725522994995,-0.3896573781967163,-0.08968490362167358,2,-0.3626309633255005,0.1760923117399216,-0.2102987319231033,0.8906541466712952,0.1611530333757401,0.7200215458869934,-0.6749805808067322,3.795660018920898,25.64603424072266,-22.16207885742188,2,1
1562614311.563807,60,0,309575.0352706667,-0.3634968315036997,0.2318975194020942,-0.8200827987962134,-0.4672357439994812,-0.1472670286893845,0.09842962026596069,0.318548321723938,-0.4154714941978455,-0.1693988442420959,2,-0.370271235704422,0.1759229004383087,-0.2100125849246979,0.8876064419746399,0.1567773669958115,0.7312023043632507,-0.6639006733894348,3.689336776733398,26.22187805175781,-21.95974731445312,2,1
1562614311.597797,61,0,309575.0702436667,-0.3317486571274521,0.2456293776869312,-0.8313595260233851,-0.4461053311824799,-0.3540566265583038,0.7661857604980469,0.2663267850875854,-0.4502629637718201,-0.2292150259017944,2,-0.3767644464969635,0.1767086088657379,-0.1987065821886063,0.8873208165168762,0.1638633012771606,0.7388482093811035,-0.6536452174186707,3.822908401489258,26.49586296081543,-21.66757202148438,2,1
1562614311.629828,62,0,309575.1051566667,-0.268256557877477,0.272689885758608,-0.8333031096872143,-0.3622934818267822,-0.7015047073364258,1.337393283843994,0.1852757781744003,-0.4061150550842285,-0.2987332344055176,2,-0.3807221949100494,0.1767951101064682,-0.1756651699542999,0.8904695510864258,0.181102067232132,0.7401565313339233,-0.6475881934165955,4.508716583251953,25.85998725891113,-21.99127197265625,2,1
1562614311.663966,63,0,309575.1051566667,-0.268256557877477,0.272689885758608,-0.8333031096872143,-0.3622934818267822,-0.7015047073364258,1.337393283843994,0.1852757781744003,-0.4061150550842285,-0.2987332344055176,2,-0.3807221949100494,0.1767951101064682,-0.1756651699542999,0.8904695510864258,0.181102067232132,0.7401565313339233,-0.6475881934165955,4.508716583251953,25.85998725891113,-21.99127197265625,2,1
1562614311.698592,64,0,309575.1401296667,-0.188540300486449,0.3005558673021103,-0.827397513726852,-0.2261143326759338,-0.9622481465339661,1.592719435691833,0.1648828834295273,-0.2702494263648987,-0.3559123873710632,2,-0.3827995359897614,0.1738884150981903,-0.1451355367898941,0.8956355452537537,0.2003656625747681,0.7361724972724915,-0.6464546918869019,5.011619567871094,25.05433464050293,-22.32522583007812,2,1
1562614311.729521,65,0,309575.1750416667,-0.1038722801065702,0.3276519359291202,-0.8157642407748728,-0.1861501336097717,-0.9891026616096497,1.702032923698425,0.1517808735370636,-0.1750003099441528,-0.3951085805892944,2,-0.3830551207065582,0.1698288172483444,-0.1116226240992546,0.9010923504829407,0.2205476611852646,0.7282495498657227,-0.6488538980484009,5.459226608276367,23.49522018432617,-23.16091918945312,2,1
1562614311.762263,66,0,309575.2100146667,-0.02969103110338632,0.3510555982760018,-0.7999405053467078,0.06630057841539383,-0.7857369780540466,1.357498645782471,0.1338529139757156,-0.2195310592651367,-0.380491316318512,2,-0.3809777498245239,0.1665188670158386,-0.08145419508218765,0.905810534954071,0.2396046221256256,0.7173146605491638,-0.6542548537254333,6.12510871887207,21.84075164794922,-24.02969360351562,2,1
1562614311.795518,67,0,309575.2449576667,0.005167386409396458,0.3620095359175861,-0.7701810635749481,0.7918342351913452,-0.1293325275182724,0.8010075688362122,0.248843789100647,0.03323805332183838,-0.3733711242675781,2,-0.3699361085891724,0.1658790558576584,-0.06526694446802139,0.9117957949638367,0.2542064487934113,0.6962652206420898,-0.671262800693512,6.669107437133789,20.01984214782715,-25.1619873046875,2,1
1562614311.827489,68,0,309575.2799306667,0.03881577269520711,0.3832743445334262,-0.7358906317914189,0.4839715361595154,-0.2261778563261032,1.203434109687805,0.1818527579307556,-0.08842670917510986,-0.2688931822776794,2,-0.356496661901474,0.1708318740129471,-0.05072137713432312,0.9171445369720459,0.2771910429000854,0.6712476015090942,-0.6874532103538513,7.052953720092773,19.25630950927734,-25.4208984375,2,1
1562614311.861438,69,0,309575.3148426667,0.09873007473644495,0.3878906461774575,-0.7062767244295483,0.2280087620019913,-1.449041843414307,1.653692722320557,0.1550827324390411,0.1130908727645874,-0.3122169971466064,2,-0.3478702008724213,0.1638726145029068,-0.02114200033247471,0.9228678941726685,0.2877562046051025,0.649005651473999,-0.7042641639709473,8.071811676025391,17.24502563476562,-25.92999267578125,2,1
1562614311.893468,70,0,309575.3498156667,0.172930049939128,0.3635672598421002,-0.6806112228235187,0.0341242253780365,-2.208784103393555,1.816243648529053,0.266010969877243,0.1553351283073425,-0.2861576080322266,2,-0.3417658805847168,0.141430988907814,0.01994781382381916,0.9288678169250488,0.2763763666152954,0.6292681694030762,-0.7263867259025574,7.15156364440918,15.68588829040527,-27.76663208007812,2,1
1562614311.927266,71,0,309575.3847586667,0.2364576576592797,0.3339643955852322,-0.6538648137675076,0.4125441312789917,-1.76227855682373,1.462929844856262,0.3676256835460663,-0.01219272613525391,-0.1100711822509766,2,-0.3330283164978027,0.1189521104097366,0.05714897438883781,0.9336361885070801,0.2601804435253143,0.6082586050033569,-0.749885082244873,5.065227508544922,14.1657543182373,-29.82296752929688,2,1
1562614311.959404,72,0,309575.4197316667,0.2817132392137616,0.3161813633433279,-0.6089384686593923,1.152236461639404,-1.007106184959412,1.406099557876587,0.3621971905231476,-0.06804829835891724,-0.03473693132400513,2,-0.3142020404338837,0.1071419343352318,0.08553505688905716,0.9394048452377319,0.2550498843193054,0.5719970464706421,-0.7795953750610352,3.407621383666992,11.78579235076904,-31.45068359375,2,1
1562614311.993266,73,0,309575.4546436667,0.322672587509681,0.3147021898185293,-0.5426763961907621,1.656774044036865,-0.5677769780158997,1.593454599380493,0.2688257396221161,-0.02186477184295654,0.01927483081817627,2,-0.285523384809494,0.1064864993095398,0.1113939955830574,0.9459008574485779,0.2650625109672546,0.5164297223091125,-0.8142740726470947,3.430929183959961,10.07092761993408,-32.23040771484375,2,1
1562614312.033997,74,0,309575.4896166667,0.3640249007444514,0.3110732741951029,-0.4609746818095202,2.059237718582153,-0.7672542333602905,1.764434099197388,0.2040466666221619,0.07989540696144104,0.04500138759613037,2,-0.2492647767066956,0.1074697524309158,0.1392901539802551,0.9523211121559143,0.2741316854953766,0.4448212683200836,-0.8526346683502197,2.686494827270508,6.152975082397461,-33.27392578125,2,1
1562614312.059243,75,0,309575.5245286667,0.3995726654786023,0.2970681841286291,-0.364776295084939,2.475246906280518,-0.7512383460998535,1.647297620773315,0.2258535027503967,0.3205648064613342,0.1579016447067261,2,-0.2046960443258286,0.1070390418171883,0.1667111068964005,0.958566427230835,0.2734582722187042,0.3567403256893158,-0.8932843208312988,1.400289535522461,1.374326705932617,-34.12655639648438,2,1
1562614312.114718,76,0,309575.5595016667,0.4216755365199854,0.2891888880202135,-0.2642926419371645,2.609503507614136,-0.204368457198143,1.249638319015503,0.2340181171894073,0.4834924340248108,0.2999350428581238,2,-0.1573920994997025,0.1123846024274826,0.1867243349552155,0.9631881713867188,0.2752729058265686,0.2612265348434448,-0.9251948595046997,0.202667236328125,-3.912912368774414,-34.1998291015625,2,1
1562614312.125007,77,0,309575.5944446667,0.4300946275074284,0.2997076714072768,-0.1704384885622989,2.400039911270142,0.4765286445617676,0.879280686378479,0.1750082969665527,0.5594800114631653,0.4316912293434143,2,-0.1139663383364677,0.1273658275604248,0.1978217959403992,0.965223491191864,0.2909630239009857,0.1696144938468933,-0.9415792226791382,-0.07353973388671875,-8.668861389160156,-33.27999877929688,2,1
1562614312.157413,78,0,309575.629429875,0.4350073846644792,0.3239380548891673,-0.09234603425055657,1.918290615081787,0.7418699860572815,0.8138935565948486,0.0681687593460083,0.566811740398407,0.4585371017456055,2,-0.07924128323793411,0.1474645882844925,0.2054735273122787,0.9642384052276611,0.3169459998607635,0.09221483767032623,-0.9439500570297241,0.0676727294921875,-10.63438606262207,-32.66409301757812,2,1
1562614312.198666,79,0,309575.664341875,0.44361555858273,0.3485244488171949,-0.03011698751599357,1.412609815597534,0.6236593723297119,0.8417909741401672,-0.05241808295249939,0.5826956033706665,0.4707773923873901,2,-0.052605040371418,0.1658523082733154,0.2140902280807495,0.9611926078796387,0.341356486082077,0.03011243417859077,-0.9394514560699463,0.5596637725830078,-13.84100532531738,-30.95999145507812,2,1
1562614312.22308,80,0,309575.664341875,0.44361555858273,0.3485244488171949,-0.03011698751599357,1.412609815597534,0.6236593723297119,0.8417909741401672,-0.05241808295249939,0.5826956033706665,0.4707773923873901,2,-0.052605040371418,0.1658523082733154,0.2140902280807495,0.9611926078796387,0.341356486082077,0.03011243417859077,-0.9394514560699463,0.5596637725830078,-13.84100532531738,-30.95999145507812,2,1
1562614312.26726,81,0,309575.699314875,0.4587317333905023,0.3662327802814987,0.01539771947030519,0.8549625277519226,0.4490699172019958,0.8287152051925659,-0.1453529596328735,0.6764384508132935,0.4805231690406799,2,-0.03402803093194962,0.1790416985750198,0.2249173820018768,0.9571824669837952,0.3580581545829773,-0.01539711095392704,-0.9335723519325256,0.6130638122558594,-16.33615303039551,-29.64462280273438,2,1
1562614312.288923,82,0,309575.734257875,0.4747278527930754,0.374499691071229,0.03372082775094577,0.01182912569493055,0.1008888706564903,0.4594910442829132,-0.2555397152900696,0.6785205602645874,0.4562384486198425,2,-0.02766665443778038,0.1848072707653046,0.2340487092733383,0.9540974497795105,0.3655989766120911,-0.03371443599462509,-0.9301616549491882,0.6444282531738281,-17.64506721496582,-28.91046142578125,2,1
1562614312.32275,83,0,309575.769200875,0.4708568322800689,0.3746348968367677,0.02078079179356037,-0.429839164018631,0.01398484222590923,-0.7473310232162476,-0.254054993391037,0.838085949420929,0.4315385222434998,2,-0.03350932151079178,0.1834582984447479,0.2310484200716019,0.9549015164375305,0.3658537566661835,-0.02077929675579071,-0.930440366268158,0.7745208740234375,-17.30401420593262,-29.19699096679688,2,1
1562614312.354676,84,0,309575.804142875,0.4307625734359465,0.3813360607395958,-0.03422089071680894,-1.569440722465515,0.2424932420253754,-2.027125120162964,-0.1599855422973633,0.6742206215858459,0.4000669717788696,2,-0.05690856277942657,0.1815186142921448,0.2066485285758972,0.9597441554069519,0.3719429969787598,0.03421421349048615,-0.9276248216629028,1.552471160888672,-16.26092338562012,-29.42572021484375,2,1
1562614312.388769,85,0,309575.839115875,0.4031235909738388,0.379791229778037,-0.1477080252808481,-3.202629327774048,-0.1806874424219131,-1.757959008216858,-0.0594412088394165,0.3657059371471405,0.1070592403411865,2,-0.108679510653019,0.169924333691597,0.1824192404747009,0.9623085260391235,0.3666897416114807,0.1471714973449707,-0.918628990650177,3.148334503173828,-11.69954681396484,-30.51202392578125,2,1
1562614312.427786,86,0,309575.874027875,0.3935550210520071,0.3628660488026473,-0.2660771990466664,-2.8542799949646,-0.4746015965938568,-1.404189586639404,0.04928767681121826,0.5284466147422791,-0.1776669025421143,2,-0.1629173755645752,0.1498853415250778,0.1671289503574371,0.960760235786438,0.3424641788005829,0.2629487216472626,-0.9019846320152283,3.227811813354492,-6.068643569946289,-32.29010009765625,2,1
1562614312.45456,87,0,309575.909001875,0.3853184240693169,0.342103140294446,-0.3805309388413081,-3.226319551467896,-0.5477310419082642,-1.2686927318573,0.1248355507850647,0.4954053163528442,-0.3283244967460632,2,-0.2149152606725693,0.1283722519874573,0.1536744236946106,0.9558849930763245,0.3114721775054932,0.3714134693145752,-0.8746640086174011,2.814189910888672,-0.8034725189208984,-33.13287353515625,2,1
1562614312.486668,88,0,309575.943943875,0.384741266136021,0.32481645395291,-0.5085407466755021,-3.454463005065918,-0.4038559198379517,-1.197204947471619,0.1863968372344971,0.09720000624656677,-0.3176045417785645,2,-0.2735702991485596,0.1061514317989349,0.1426817178726196,0.9452687501907349,0.2787502110004425,0.4869031608104706,-0.8277823328971863,2.635578155517578,2.354833602905273,-33.44110107421875,2,1
1562614312.520493,89,0,309575.978916875,0.3739126467694957,0.3210797038506873,-0.621630105383833,-2.651390790939331,0.364124059677124,-1.306533455848694,0.1957913637161255,-0.2115918397903442,-0.3042538166046143,2,-0.3249289989471436,0.09342552721500397,0.1266514509916306,0.9325515031814575,0.2565536797046661,0.582361102104187,-0.7713856101036072,2.106746673583984,8.255611419677734,-33.2947998046875,2,1
1562614312.552509,90,0,309576.013828875,0.3451771065762937,0.3290139163912412,-0.6979831712619736,-1.417894721031189,0.8804391026496887,-1.29883885383606,0.128625750541687,-0.4253473877906799,-0.2784966826438904,2,-0.3587508201599121,0.09367616474628448,0.1040339767932892,0.922875702381134,0.2475474625825882,0.6426738500595093,-0.7250452637672424,2.498344421386719,12.37480926513672,-32.32864379882812,2,1
1562614312.587885,91,0,309576.048802875,0.3022196806990172,0.3325407570329974,-0.7392325988063723,-0.5809237957000732,0.9207714200019836,-1.237782716751099,0.1100016534328461,-0.4322096705436707,-0.2398250102996826,2,-0.3754474818706512,0.09893737733364105,0.07932458072900772,0.9181275367736816,0.2412386834621429,0.6737210154533386,-0.6985011696815491,2.948726654052734,14.76314163208008,-31.30935668945312,2,1
1562614312.618905,92,0,309576.083714875,0.255568986862989,0.3294370888356239,-0.7656654202283305,-0.311881959438324,0.7510212659835815,-1.090173840522766,0.1351351737976074,-0.346494734287262,-0.2313161492347717,2,-0.3848727643489838,0.1039047315716743,0.0558585524559021,0.9153996706008911,0.2332255840301514,0.6930168867111206,-0.6821535229682922,3.331192016601562,16.33542633056641,-30.43289184570312,2,1
1562614312.671637,93,0,309576.118687875,0.2207753574585628,0.3247809149004741,-0.7831756707573885,-0.2615008652210236,0.4536644518375397,-0.6702467799186707,0.1468141973018646,-0.3098018765449524,-0.2298184037208557,2,-0.3908056914806366,0.1070382744073868,0.03915529325604439,0.9133896231651306,0.2261395156383514,0.705533504486084,-0.6716274619102478,3.270303726196289,16.8957576751709,-30.07843017578125,2,1
1562614312.684334,94,0,309576.153629875,0.2121254511779836,0.3259307711163278,-0.8001837435674193,-0.4956418573856354,0.08357522636651993,-0.1298836767673492,0.1028282940387726,-0.3470973968505859,-0.2474029064178467,2,-0.3980019092559814,0.1079040318727493,0.03337173163890839,0.910405158996582,0.2230367958545685,0.7174841165542603,-0.6599023938179016,3.638805389404297,17.83995819091797,-29.52200317382812,2,1
1562614312.718173,95,0,309576.188603875,0.2291961495279008,0.3324030811902378,-0.8153713449102249,-0.4847244918346405,-0.3145216703414917,0.3230914175510406,0.05374293029308319,-0.3676491379737854,-0.3028306365013123,2,-0.4058243930339813,0.1061697453260422,0.03836571797728539,0.9069523811340332,0.2237212955951691,0.7279802560806274,-0.6480690836906433,3.367347717285156,18.26283645629883,-29.18267822265625,2,1
1562614312.750104,96,0,309576.223515875,0.2538925821671991,0.3340549951088195,-0.8233034857211854,-0.3032451570034027,-0.5140181183815002,0.3669327199459076,0.04106898605823517,-0.2548241019248962,-0.3690098524093628,2,-0.4106703102588654,0.1011845096945763,0.04842834174633026,0.9048571586608887,0.2228912264108658,0.733395516872406,-0.6422231793403625,3.185920715332031,18.36749839782715,-29.44796752929688,2,1
1562614312.783994,97,0,309576.258488875,0.2679151972862358,0.3306848216591048,-0.8273404610544379,-0.1557978987693787,-0.2950464487075806,0.1240925118327141,0.07149574160575867,-0.2113285064697266,-0.3654833436012268,2,-0.4130665361881256,0.09640278667211533,0.05505618080496788,0.903908908367157,0.2197623997926712,0.7361339330673218,-0.6401650905609131,2.652355194091797,18.4212818145752,-29.70687866210938,2,1
1562614312.818739,98,0,309576.258488875,0.2679151972862358,0.3306848216591048,-0.8273404610544379,-0.1557978987693787,-0.2950464487075806,0.1240925118327141,0.07149574160575867,-0.2113285064697266,-0.3654833436012268,2,-0.4130665361881256,0.09640278667211533,0.05505618080496788,0.903908908367157,0.2197623997926712,0.7361339330673218,-0.6401650905609131,2.652355194091797,18.4212818145752,-29.70687866210938,2,1
1562614312.849902,99,0,309576.293430875,0.2647305198139987,0.3252553053508129,-0.8295535936412075,0.06741995364427567,-0.01670020073652267,-0.2118965238332748,0.1368668079376221,-0.2529246211051941,-0.3792114853858948,2,-0.4137467741966248,0.09440251439809799,0.05451695993542671,0.9038416147232056,0.21576227247715,0.7376300096511841,-0.6398035287857056,2.324947357177734,18.33022880554199,-29.7327880859375,2,1
1562614312.881835,100,0,309576.328373875,0.2392867014061055,0.3121986372562898,-0.8234194801957501,0.39877849817276,0.2850611507892609,-0.4463070333003998,0.2591939568519592,-0.07010394334793091,-0.4232110381126404,2,-0.409490704536438,0.09427297115325928,0.04628513753414154,0.9062492251396179,0.2087762802839279,0.7334743738174438,-0.6468599438667297,2.04600715637207,18.27643775939941,-29.8563232421875,2,1
1562614312.915955,101,0,309576.363316875,0.2347005127288316,0.3164840499973596,-0.8171151532363701,0.04669049382209778,0.01134930364787579,0.2819179892539978,0.2514946460723877,-0.2882466316223145,-0.3384463787078857,2,-0.4065553843975067,0.09768447279930115,0.04392757266759872,0.9073262810707092,0.2129813581705093,0.7291746735572815,-0.6503409147262573,2.513574600219727,18.08101463317871,-29.63003540039062,2,1
1562614312.947929,102,0,309576.398289875,0.2708706358750679,0.3150636366944902,-0.8054313923387124,0.2197859883308411,-1.231598258018494,1.010254621505737,0.2379675805568695,-0.2140241265296936,-0.3912766575813293,2,-0.4030085504055023,0.09074670821428299,0.06176026538014412,0.9085894823074341,0.2146828323602676,0.7211295962333679,-0.6586982607841492,2.689846038818359,17.41060447692871,-29.95028686523438,2,1
1562614312.984132,103,0,309576.433201875,0.3203287404258646,0.2906536302379597,-0.78241895009635,0.3622750639915466,-1.854093551635742,1.136724710464478,0.365098237991333,-0.0458223819732666,-0.3593416810035706,2,-0.3938088417053223,0.07199135422706604,0.09136486053466797,0.9118027687072754,0.2032444179058075,0.7049970030784607,-0.6794636845588684,2.125652313232422,16.83141326904297,-30.618408203125,2,1
1562614313.014251,104,0,309576.468174875,0.3610227935278888,0.2617679805122816,-0.7521112135767634,0.7794054746627808,-1.425719618797302,1.009507536888123,0.4467455744743347,-0.08226531744003296,-0.2214037179946899,2,-0.3799908757209778,0.05404799059033394,0.1184069216251373,0.9157868623733521,0.1889799833297729,0.6831820011138916,-0.7053714990615845,0.3043537139892578,15.51975440979004,-32.18499755859375,2,1
1562614313.047845,105,0,309576.503117875,0.3961182479253531,0.2514042490601361,-0.7023227245491855,1.421544432640076,-0.7028228640556335,1.159976243972778,0.4582840204238892,-0.1768962740898132,-0.05778896808624268,2,-0.3577660918235779,0.04826755449175835,0.141017884016037,0.9218392372131348,0.1898926794528961,0.6459924578666687,-0.7393473386764526,-1.228206634521484,13.64879608154297,-33.47747802734375,2,1
1562614313.079567,106,0,309576.538090875,0.437539341242675,0.2643758557274503,-0.6309832365834768,1.886642098426819,-0.2344518303871155,1.577094793319702,0.3593803644180298,-0.1200945377349854,0.00203317403793335,2,-0.3274391293525696,0.05555851757526398,0.1645954847335815,0.9287654757499695,0.2109916657209396,0.5899389386177063,-0.77939373254776,-1.258337020874023,10.57781410217285,-34.431884765625,2,1
1562614313.113644,107,0,309576.573002875,0.4853401705010119,0.2818021778732514,-0.5460455690136112,2.095857620239258,-0.3234687745571136,1.831257462501526,0.2322436273097992,0.04023945331573486,0.02309983968734741,2,-0.2916449904441833,0.06711931526660919,0.1923437416553497,0.9345812201499939,0.2376490831375122,0.5193119049072266,-0.82087641954422,-1.231760025024414,6.053736686706543,-35.20492553710938,2,1
1562614313.152855,108,0,309576.607975875,0.5323101576273664,0.2876196530760364,-0.4530795983054597,2.27974271774292,-0.5497061014175415,1.870732665061951,0.1953428685665131,0.2100571393966675,0.08079683780670166,2,-0.2511935830116272,0.07626842707395554,0.2226015776395798,0.9389002323150635,0.2550490498542786,0.4377364814281464,-0.8621698021888733,-1.555845260620117,3.716573715209961,-35.45352172851562,2,1
1562614313.179331,109,0,309576.642872625,0.5699703496016477,0.2873138944548289,-0.3577234138995548,2.365196228027344,-0.3125125765800476,1.621660947799683,0.2008682489395142,0.3756848871707916,0.216429591178894,2,-0.2085823118686676,0.08569434285163879,0.2493654638528824,0.9417890906333923,0.265438437461853,0.3501426577568054,-0.8982998132705688,-2.42018985748291,-1.049728393554688,-35.7808837890625,2,1
1562614313.226962,110,0,309576.677845625,0.5938326870030193,0.294441180997274,-0.2650044568571491,2.310267686843872,0.1695596128702164,1.245532035827637,0.1753069162368774,0.469804584980011,0.3197672963142395,2,-0.1675084680318832,0.1008060574531555,0.2683393359184265,0.9432777762413025,0.2800744473934174,0.2619135677814484,-0.9235581159591675,-3.025349617004395,-5.860908508300781,-35.23846435546875,2,1
1562614313.245365,111,0,309576.712788625,0.6086810837601355,0.3135209352908727,-0.1835817606854199,1.946847200393677,0.5712103843688965,1.025630831718445,0.06794065237045288,0.5078303813934326,0.4025688171386719,2,-0.1329637765884399,0.1211866810917854,0.281091034412384,0.9426676034927368,0.3032273650169373,0.182552307844162,-0.9352688193321228,-2.992131233215332,-9.878583908081055,-34.21487426757812,2,1
1562614313.277381,112,0,309576.747761625,0.6235524447211832,0.3361667536366091,-0.1184492596588917,1.488815546035767,0.548103392124176,0.965972363948822,-0.04747134447097778,0.5401672124862671,0.4212366342544556,2,-0.1067696660757065,0.1410480737686157,0.2924718260765076,0.9397690296173096,0.3275594711303711,0.1181724742054939,-0.937411367893219,-2.674384117126465,-13.21860504150391,-32.89752197265625,2,1
1562614313.311175,113,0,309576.782673625,0.6360336735692206,0.3533758349176399,-0.06811085137971992,1.05963134765625,0.4030488133430481,0.7088125944137573,-0.164679080247879,0.6583970785140991,0.4353321194648743,2,-0.08676654100418091,0.1563788950443268,0.3019522130489349,0.936398446559906,0.3452646136283875,0.06805820018053055,-0.9360344409942627,-2.526357650756836,-14.3618221282959,-32.45889282226562,2,1
1562614313.343232,114,0,309576.817646625,0.6397788092529042,0.3648076812844945,-0.04493001194133341,0.2967957258224487,0.2602847218513489,0.06696874648332596,-0.2154512703418732,0.6989202499389648,0.447607696056366,2,-0.0779968798160553,0.1652019172906876,0.3052988052368164,0.9345681071281433,0.3564096093177795,0.04491489753127098,-0.9332496523857117,-2.431893348693848,-16.34103965759277,-31.3614501953125,2,1
1562614313.393198,115,0,309576.852589625,0.6228708370047749,0.3690556253319658,-0.05782419319634546,-0.423890084028244,0.08095885813236237,-0.9624361991882324,-0.1713372766971588,0.8836596608161926,0.3464075922966003,2,-0.08325042575597763,0.1658751368522644,0.2960482835769653,0.9369686245918274,0.3601318895816803,0.05779197439551353,-0.931109607219696,-1.799348831176758,-15.85674858093262,-31.25466918945312,2,1
1562614313.409092,116,0,309576.852589625,0.6228708370047749,0.3690556253319658,-0.05782419319634546,-0.423890084028244,0.08095885813236237,-0.9624361991882324,-0.1713372766971588,0.8836596608161926,0.3464075922966003,2,-0.08325042575597763,0.1658751368522644,0.2960482835769653,0.9369686245918274,0.3601318895816803,0.05779197439551353,-0.931109607219696,-1.799348831176758,-15.85674858093262,-31.25466918945312,2,1
1562614313.443136,117,0,309576.887562625,0.5904073856745842,0.365377441842247,-0.1124677628399603,-1.609340071678162,-0.09941000491380692,-1.578678965568542,-0.07155373692512512,0.8316466212272644,0.262758731842041,2,-0.1056499406695366,0.15746109187603,0.2758718132972717,0.9423051476478577,0.3550444841384888,0.1122308149933815,-0.9280881881713867,-0.7235260009765625,-13.66140174865723,-32.01895141601562,2,1
1562614313.475566,118,0,309576.922474625,0.5774734185533384,0.3516779053930648,-0.2126084858103864,-3.016687154769897,-0.528411865234375,-1.099216222763062,0.03423696756362915,0.2957937121391296,0.1213317513465881,2,-0.1496733278036118,0.1369996964931488,0.2609753012657166,0.9437801837921143,0.336717277765274,0.2110103666782379,-0.9176579713821411,-0.5669384002685547,-11.55156517028809,-32.61492919921875,2,1
1562614313.509036,119,0,309576.957447625,0.5968573926026925,0.3301954851779558,-0.3192683477714682,-2.852394342422485,-0.8239564895629883,-0.250002384185791,0.07852253317832947,0.1725913882255554,-0.05041956901550293,2,-0.1975724101066589,0.1089863851666451,0.2613635957241058,0.9384967088699341,0.3078432083129883,0.3138719797134399,-0.8981742262840271,-0.9315032958984375,-6.54570198059082,-34.31167602539062,2,1
1562614313.551865,120,0,309576.992360625,0.6176403161981384,0.315619177618241,-0.4003271758790393,-2.242217063903809,-0.4650143384933472,-0.2721321582794189,0.03713357448577881,0.2470421493053436,-0.09967035055160522,2,-0.2338811159133911,0.08705116808414459,0.2643962204456329,0.931566596031189,0.2858624756336212,0.3897196650505066,-0.8754434585571289,-1.932374000549316,-2.485828399658203,-35.47412109375,2,1
1562614313.575117,121,0,309577.027333625,0.62552618804811,0.3192722947999478,-0.4861197551312517,-2.46340537071228,0.2502014636993408,-0.7642626762390137,0.02865171432495117,0.05240556597709656,-0.0660783052444458,2,-0.2735584676265717,0.07369062304496765,0.2584461867809296,0.9235481023788452,0.2775139510631561,0.4671986997127533,-0.8394709229469299,-2.030350685119629,1.440778732299805,-35.98895263671875,2,1
1562614313.60697,122,0,309577.062275625,0.6131992840494932,0.3354665910846228,-0.5696718098939144,-1.929751753807068,0.8281938433647156,-1.175726532936096,0.01859983801841736,-0.2237772941589355,-0.09455776214599609,2,-0.3124936521053314,0.06912857294082642,0.2408679127693176,0.9162704944610596,0.2772203385829926,0.5393556952476501,-0.7951379418373108,-1.103540420532227,5.524230003356934,-35.39447021484375,2,1
1562614313.640806,123,0,309577.097248625,0.5851533707042155,0.3514531478291497,-0.6323521640011859,-1.237339854240417,0.8789018392562866,-1.231049060821533,-0.02385252714157104,-0.2992388606071472,-0.126107394695282,2,-0.3410592675209045,0.07079800218343735,0.2178535461425781,0.9117050766944885,0.2776957452297211,0.5910437107086182,-0.757332444190979,-0.3307228088378906,7.101195335388184,-35.01174926757812,2,1
1562614313.672837,124,0,309577.132161625,0.5497369750588327,0.3519150650100962,-0.6850880528121658,-1.147555470466614,0.4971447288990021,-1.315211415290833,0.02247616648674011,-0.2602483034133911,-0.1482944488525391,2,-0.3630360960960388,0.06893337517976761,0.1951145827770233,0.9085060954093933,0.2669200599193573,0.6327412128448486,-0.7269059419631958,0.2171630859375,9.624095916748047,-34.18637084960938,2,1
1562614313.706897,125,0,309577.167134625,0.5115638097593596,0.3402477241534017,-0.738817807731974,-1.164241194725037,0.3406809866428375,-1.250506401062012,0.159173846244812,-0.2346225380897522,-0.2119311094284058,2,-0.3842192590236664,0.06271548569202423,0.1733877062797546,0.9046431183815002,0.2467080503702164,0.673414409160614,-0.6968846321105957,0.07880210876464844,12.13935470581055,-33.6292724609375,2,1
1562614313.738634,126,0,309577.202076625,0.4876613450372285,0.3333282175989981,-0.7875865327001961,-1.133565902709961,0.2385146021842957,-0.6886570453643799,0.2347230315208435,-0.3052919507026672,-0.3258029818534851,2,-0.4041700661182404,0.05731610581278801,0.1580846309661865,0.8990944027900696,0.230851337313652,0.7086524963378906,-0.66672283411026,-0.4000530242919922,14.45714092254639,-32.9627685546875,2,1
1562614313.778894,127,0,309577.237019625,0.4937229107075889,0.3442687001340544,-0.8219292497425137,-0.8425078988075256,0.1630590260028839,0.02937457151710987,0.1787581443786621,-0.4278704524040222,-0.3723556995391846,2,-0.420028418302536,0.05608498305082321,0.1543515026569366,0.8925279974937439,0.2297788709402084,0.732460618019104,-0.6408612132072449,-0.2926177978515625,16.1319408416748,-32.24700927734375,2,1
1562614313.804486,128,0,309577.271962625,0.5190177489350919,0.3658547803440771,-0.836521324409193,-0.3974732756614685,0.0220830887556076,0.4287700355052948,0.03407806158065796,-0.4861580729484558,-0.3900001049041748,2,-0.4286766052246094,0.0581747330725193,0.1591611057519913,0.8874230980873108,0.2397084832191467,0.742316722869873,-0.6257041096687317,-0.1243877410888672,16.25370407104492,-31.94113159179688,2,1
1562614313.838313,129,0,309577.306935625,0.5432772225675688,0.3799754101846059,-0.8338623223677508,0.03209241479635239,-0.177332729101181,0.4356997907161713,-0.01173442602157593,-0.3519577980041504,-0.401183545589447,2,-0.4294173121452332,0.05963916331529617,0.1672409325838089,0.885479748249054,0.2492508441209793,0.7405324578285217,-0.6240878701210022,0.1743888854980469,16.31342315673828,-32.04434204101562,2,1
1562614313.870368,130,0,309577.341847625,0.5586090429780517,0.3824416960841155,-0.8280268627218964,0.009275042451918125,-0.291100800037384,0.2920443117618561,0.006221681833267212,-0.2232522964477539,-0.3858386278152466,2,-0.4276185631752014,0.05837352201342583,0.1743001937866211,0.8850730657577515,0.2523976564407349,0.7365983128547668,-0.6274697780609131,0.03372383117675781,16.05340194702148,-32.04522705078125,2,1
1562614313.904229,131,0,309577.376820625,0.5676318506256675,0.3756794151273789,-0.8264799289282098,0.004049505107104778,-0.4132231771945953,0.05986322835087776,0.095807284116745,-0.1426606774330139,-0.4575343132019043,2,-0.4266205430030823,0.05370417609810829,0.1799495071172714,0.8847197890281677,0.2485666126012802,0.7355511784553528,-0.6302215456962585,-0.4674072265625,15.79269504547119,-32.5267333984375,2,1
1562614313.95384,132,0,309577.411763625,0.5599575725025755,0.3608265587359311,-0.8226579662162399,0.222332239151001,-0.1225031018257141,-0.1138820350170135,0.2856769859790802,0.02198207378387451,-0.5544970035552979,2,-0.423471063375473,0.04937193170189857,0.1802253127098083,0.8864274024963379,0.2401696741580963,0.73295658826828,-0.6364693641662598,-0.7246685028076172,15.53066825866699,-32.70462036132812,2,1
1562614313.970711,133,0,309577.411763625,0.5599575725025755,0.3608265587359311,-0.8226579662162399,0.222332239151001,-0.1225031018257141,-0.1138820350170135,0.2856769859790802,0.02198207378387451,-0.5544970035552979,2,-0.423471063375473,0.04937193170189857,0.1802253127098083,0.8864274024963379,0.2401696741580963,0.73295658826828,-0.6364693641662598,-0.7246685028076172,15.53066825866699,-32.70462036132812,2,1
1562614314.002338,134,0,309577.446736625,0.5749245421915736,0.3659146449533349,-0.8111756568879605,0.2085259854793549,-0.3537613153457642,0.7152081727981567,0.2307557463645935,-0.2449234127998352,-0.4969459772109985,2,-0.4194519817829132,0.05031974986195564,0.1873299330472946,0.8868119716644287,0.2464001327753067,0.7250972986221313,-0.6430559158325195,-0.2363071441650391,15.02476119995117,-32.66726684570312,2,1
1562614314.036474,135,0,309577.481648625,0.6168466444252227,0.3614908509053129,-0.7817743850255142,0.668381929397583,-1.372673273086548,1.206028699874878,0.1552160382270813,-0.220490038394928,-0.4306395053863525,2,-0.4075687229633331,0.04458734393119812,0.2108285278081894,0.8873844742774963,0.2509864568710327,0.7045397162437439,-0.6637994050979614,-0.1497097015380859,14.27085304260254,-33.2021484375,2,1
1562614314.068696,136,0,309577.516621625,0.6553744856271591,0.324719606200315,-0.7368849392891138,1.074635624885559,-1.909238576889038,1.133013129234314,0.2671439945697784,-0.0263592004776001,-0.3535735607147217,2,-0.3850490152835846,0.02837964333593845,0.2411841005086899,0.8903719782829285,0.2362722754478455,0.6719842553138733,-0.701863706111908,-2.107057571411133,12.52360916137695,-34.66506958007812,2,1
1562614314.109173,137,0,309577.551533625,0.6927345048524762,0.2845505070807632,-0.6832759795562582,1.422719955444336,-1.405165314674377,0.9224473834037781,0.4108024835586548,0.03633731603622437,-0.1727007031440735,2,-0.3573052287101746,0.01307860855013132,0.2719467580318451,0.8934242725372314,0.2177054882049561,0.6313369870185852,-0.7443238496780396,-4.312064170837402,10.53267669677734,-36.0703125,2,1
1562614314.13411,138,0,309577.586506625,0.7210676253045849,0.2640064074899968,-0.6175719778947313,1.833161950111389,-0.7056039571762085,1.037774682044983,0.4115625619888306,0.02030378580093384,-0.07180345058441162,2,-0.3261260986328125,0.01105711981654167,0.2957367599010468,0.8978081345558167,0.2127493023872375,0.5790573358535767,-0.787039041519165,-5.12037181854248,9.062381744384766,-36.77264404296875,2,1
1562614314.168136,139,0,309577.621449625,0.7648272945981669,0.2646326461300161,-0.5352153551508252,2.225560188293457,-0.3154311776161194,1.403527140617371,0.281474232673645,0.05341595411300659,-0.01519894599914551,2,-0.2906593084335327,0.02023352868855,0.3243671059608459,0.8999410271644592,0.2249785959720612,0.5100262761116028,-0.8302155137062073,-6.093828201293945,5.424369812011719,-37.43692016601562,2,1
1562614314.200222,140,0,309577.656429875,0.811433207584241,0.2680754055494467,-0.440745171097783,2.485877513885498,-0.37931889295578,1.510282635688782,0.1869489252567291,0.1496771275997162,0.03095757961273193,2,-0.2505140900611877,0.03431861475110054,0.3548373281955719,0.9000862836837769,0.2395629286766052,0.4266135394573212,-0.8721298575401306,-6.458871841430664,0.8481788635253906,-37.62225341796875,2,1
1562614314.233936,141,0,309577.691341875,0.8533413538857074,0.263430442635473,-0.3372790836640309,2.752168655395508,-0.4178792834281921,1.424353837966919,0.1711602360010147,0.3343141376972198,0.1207444071769714,2,-0.205051451921463,0.04900609701871872,0.3843705058097839,0.8987834453582764,0.2457232028245926,0.3309206962585449,-0.9111046195030212,-7.653049468994141,-4.182907104492188,-37.51718139648438,2,1
1562614314.269923,142,0,309577.726314875,0.8856666970421501,0.2621619053024197,-0.2321067752793857,2.770122528076172,-0.005176899954676628,1.154860734939575,0.1788699626922607,0.5164145231246948,0.2160241603851318,2,-0.1593571305274963,0.06811195611953735,0.4082925915718079,0.8962495923042297,0.2522192895412445,0.2300283163785934,-0.939932107925415,-8.392032623291016,-9.153018951416016,-36.7525634765625,2,1
1562614314.299822,143,0,309577.761257875,0.9027316351291086,0.276714559477562,-0.1312859570470229,2.65395975112915,0.5623628497123718,0.9731465578079224,0.09713307023048401,0.5945994257926941,0.3631033897399902,2,-0.1184913218021393,0.09549782425165176,0.4229554533958435,0.8932797312736511,0.2708456516265869,0.1309091448783875,-0.9536799192428589,-8.528897285461426,-11.63577079772949,-36.01678466796875,2,1
1562614314.355655,144,0,309577.796200875,0.919549403758914,0.3095915061616031,-0.03927743176565539,2.434635639190674,1.138219714164734,0.7310187220573425,-0.03614199161529541,0.6183097958564758,0.4769611358642578,2,-0.08579058200120926,0.1295307725667953,0.4356425702571869,0.8866099715232849,0.304434597492218,0.03926733508706093,-0.9517235159873962,-8.078047752380371,-16.07951164245605,-34.32669067382812,2,1
1562614314.366109,145,0,309577.831142875,0.9227296095101168,0.357283439315033,0.04060554561392861,2.123961210250854,1.395586371421814,0.303854376077652,-0.2104529142379761,0.7093722224235535,0.5440182089805603,2,-0.06119795143604279,0.1679754704236984,0.4412261247634888,0.879408061504364,0.3494422435760498,-0.04059438779950142,-0.9360781311988831,-6.857138633728027,-19.92998313903809,-31.63870239257812,2,1
1562614314.397787,146,0,309577.866115875,0.9188372960482996,0.3977995334693858,0.09491157380143876,1.276286482810974,0.8901469707489014,0.02503524534404278,-0.3373258411884308,0.8638434410095215,0.5399428009986877,2,-0.0458376444876194,0.1975239664316177,0.4425967633724213,0.8734937906265259,0.3856470882892609,-0.09476914256811142,-0.9177663922309875,-5.273879051208496,-22.54250907897949,-29.62539672851562,2,1
1562614314.432046,147,0,309577.901027875,0.9082261690052561,0.4045155609850902,0.1044039554103054,-0.2025574743747711,-0.2539069652557373,-0.2855073809623718,-0.4142762422561646,0.7758309245109558,0.58100426197052,2,-0.04206559062004089,0.2026986628770828,0.4385574758052826,0.8745347261428833,0.3914304077625275,-0.1042143851518631,-0.9142874479293823,-5.042816162109375,-23.0097827911377,-28.96636962890625,2,1
1562614314.463649,148,0,309577.936001875,0.903316773047163,0.3733292419878094,0.05698185785729152,-1.634987950325012,-1.144998550415039,-0.9202414751052856,-0.3109058737754822,0.9460659027099609,0.428919792175293,2,-0.05578085035085678,0.1791227906942368,0.4334588944911957,0.8814288973808289,0.3641254305839539,-0.05695102736353874,-0.9296070337295532,-5.079948425292969,-22.22064399719238,-29.69198608398438,2,1
1562614314.506955,149,0,309577.970943875,0.8962779311707186,0.329358818102309,-0.04026413580822866,-2.957956314086914,-1.303393244743347,-1.740617990493774,-0.1061359643936157,0.8885641694068909,0.2600119709968567,2,-0.08891475945711136,0.1391138732433319,0.4243661463260651,0.8903116583824158,0.3231742382049561,0.04025325551629066,-0.9454829692840576,-5.639308929443359,-18.89881706237793,-32.09326171875,2,1
1562614314.529771,150,0,309577.970943875,0.8962779311707186,0.329358818102309,-0.04026413580822866,-2.957956314086914,-1.303393244743347,-1.740617990493774,-0.1061359643936157,0.8885641694068909,0.2600119709968567,2,-0.08891475945711136,0.1391138732433319,0.4243661463260651,0.8903116583824158,0.3231742382049561,0.04025325551629066,-0.9454829692840576,-5.639308929443359,-18.89881706237793,-32.09326171875,2,1
1562614314.563725,151,0,309578.005916875,0.8924305661593579,0.2878466882368868,-0.1895055706028493,-4.302962779998779,-1.006317496299744,-1.666114330291748,0.1006015539169312,0.494425356388092,0.05083703994750977,2,-0.1460838913917542,0.08839554339647293,0.4129356741905212,0.8946115970611572,0.2788058519363403,0.1883733421564102,-0.9416914582252502,-6.127642631530762,-12.34240531921387,-35.05606079101562,2,1
1562614314.596133,152,0,309578.040828875,0.8931295012848766,0.2641118616668224,-0.3415970105795347,-3.784761190414429,-0.3139708638191223,-1.49453341960907,0.2112894058227539,0.4149134159088135,-0.2374700307846069,2,-0.2080045640468597,0.04426662251353264,0.4016946852207184,0.8907390832901001,0.2459686845541,0.3349922597408295,-0.9095491170883179,-6.468866348266602,-4.977115631103516,-37.0606689453125,2,1
1562614314.629397,153,0,309578.075802875,0.8722588177539099,0.2594581518363223,-0.4697143903894358,-3.318052053451538,0.3862245380878448,-1.694601058959961,0.2239246368408203,0.5054028034210205,-0.3950159549713135,2,-0.2622973024845123,0.01656092330813408,0.3800992667675018,0.8868204355239868,0.2287711501121521,0.4526316225528717,-0.861851692199707,-6.390824317932129,-1.67027473449707,-37.36245727539062,2,1
1562614314.671491,154,0,309578.110744875,0.8603944550013648,0.2614505543339435,-0.6087632432838891,-3.837018728256226,0.4141828715801239,-1.55991530418396,0.242479681968689,0.1276504397392273,-0.4465231895446777,2,-0.3219360411167145,-0.01089490111917257,0.358976811170578,0.8759989738464355,0.2120473086833954,0.5718533396720886,-0.7924769520759583,-5.540217399597168,4.676225662231445,-37.31951904296875,2,1
1562614314.695291,155,0,309578.145687875,0.8492775308745085,0.2682269560735368,-0.7408801620611781,-3.211447954177856,0.787841796875,-1.459747314453125,0.2858598530292511,-0.2650619745254517,-0.4744408130645752,2,-0.3782625794410706,-0.03424009680747986,0.3364889025688171,0.8616961240768433,0.1955531984567642,0.6749376058578491,-0.7114900946617126,-4.935019493103027,11.25638484954834,-36.32461547851562,2,1
1562614314.727281,156,0,309578.180630875,0.8192899304608023,0.2810569255239771,-0.8267687126580189,-1.620817303657532,1.053112506866455,-1.108566641807556,0.227216362953186,-0.5293476581573486,-0.4038244485855103,2,-0.4159289598464966,-0.04076217114925385,0.3095284998416901,0.8541274666786194,0.1878515481948853,0.7357468008995056,-0.6506831049919128,-4.461422920227051,15.74342441558838,-34.5032958984375,2,1
1562614314.761138,157,0,309578.215603875,0.7852968778906982,0.2917000171695114,-0.8746974635672191,-1.009850144386292,1.010268568992615,-0.9874220490455627,0.2115587443113327,-0.4825357794761658,-0.3611124157905579,2,-0.4375285804271698,-0.03870564699172974,0.28607177734375,0.8516064882278442,0.184405192732811,0.7673495411872864,-0.6141412258148193,-4.084165573120117,17.86724281311035,-33.5699462890625,2,1
1562614314.793276,158,0,309578.250515875,0.7476288163794417,0.2906386557907403,-0.9137939862194282,-0.7830662727355957,0.6840564608573914,-0.9237546324729919,0.2569873929023743,-0.4012390971183777,-0.3603520393371582,2,-0.4538257420063019,-0.03842169046401978,0.2647852599620819,0.8499733805656433,0.1750179082155228,0.791826605796814,-0.5851319432258606,-3.956037521362305,18.86114311218262,-33.01766967773438,2,1
1562614314.827791,159,0,309578.285488875,0.7250950791311874,0.2883617447062494,-0.9401951905788128,-0.5472322702407837,0.3428638279438019,-0.3519905507564545,0.2623414695262909,-0.4351522922515869,-0.3724781274795532,2,-0.4645639657974243,-0.03921426087617874,0.252051442861557,0.8480050563812256,0.1676802486181259,0.8076732158660889,-0.5652851462364197,-4.273876190185547,20.31234741210938,-32.06793212890625,2,1
1562614314.859066,160,0,309578.320431875,0.7422003646020332,0.3051910231661873,-0.9550846600672727,-0.3857013285160065,0.1804237514734268,0.2296651154756546,0.1718447804450989,-0.4962095618247986,-0.3887428045272827,2,-0.4722915589809418,-0.03892288729548454,0.2532235383987427,0.8433881998062134,0.1735364645719528,0.8163626194000244,-0.5508514046669006,-3.872437477111816,21.02395057678223,-31.41845703125,2,1
1562614314.911097,161,0,309578.355404875,0.7858643760332573,0.3336215373415572,-0.9568771183021756,-0.116797924041748,0.03337251767516136,0.5969549417495728,0.06744086742401123,-0.5163018703460693,-0.4282258749008179,2,-0.4758407771587372,-0.03767545521259308,0.2645695805549622,0.8379493951797485,0.1886457353830338,0.8173965215682983,-0.5443122386932373,-3.101752281188965,21.1561336517334,-31.35800170898438,2,1
1562614314.925157,162,0,309578.390316875,0.8290958816767827,0.3591161619880432,-0.9465961494459243,0.165435716509819,-0.2348309755325317,0.6736748814582825,-0.01213657855987549,-0.3681089282035828,-0.4786869883537292,2,-0.4745335876941681,-0.03514591977000237,0.2782227694988251,0.8343709111213684,0.2054026275873184,0.811430811882019,-0.5471652746200562,-3.093986511230469,20.99243927001953,-31.382568359375,2,1
1562614314.958845,163,0,309578.425289875,0.8673530073016725,0.367634675031246,-0.9287425385032664,0.3961932063102722,-0.4087218046188354,0.5614187717437744,0.001001343131065369,-0.2756210565567017,-0.4816888570785522,2,-0.4682282507419586,-0.03672624006867409,0.2950978577136993,0.832064151763916,0.2152291387319565,0.8008675575256348,-0.5588269829750061,-2.79990291595459,19.94220161437988,-31.78024291992188,2,1
1562614314.991403,164,0,309578.460201875,0.8937116591394444,0.3633562103895389,-0.9051513651737388,0.6623285412788391,-0.433126837015152,0.3606668710708618,0.1196333169937134,-0.07606089115142822,-0.5476669073104858,2,-0.4580735862255096,-0.03931896016001701,0.3109800517559052,0.8318137526512146,0.2194913923740387,0.7865186333656311,-0.5772452354431152,-3.071928977966309,18.95490074157715,-32.20327758789062,2,1
1562614315.024835,165,0,309578.495174875,0.8924625916430555,0.3487956967441426,-0.8714828938572974,1.162121653556824,0.1385776996612549,0.01950682327151299,0.2512887120246887,0.1268600225448608,-0.5810450911521912,2,-0.4428631961345673,-0.03749619796872139,0.3192410171031952,0.8369894623756409,0.2199923545122147,0.7652842998504639,-0.604932427406311,-2.69580078125,17.57606506347656,-33.087890625,2,1
1562614315.066046,166,0,309578.530117875,0.883668368535978,0.3550111034521652,-0.8268057554042244,1.271028280258179,0.3097955882549286,0.4924452602863312,0.2171986699104309,-0.07092243432998657,-0.4453110694885254,2,-0.4265860915184021,-0.02290723472833633,0.321301132440567,0.8451420068740845,0.2354054600000381,0.7357718944549561,-0.63499915599823,-1.585683822631836,15.8095817565918,-33.16940307617188,2,1
1562614315.090709,167,0,309578.565090875,0.8934176818837325,0.3567094494132989,-0.7693200583245767,1.592836380004883,-0.4629794955253601,0.8634895086288452,0.1571176052093506,-0.003987431526184082,-0.3552677631378174,2,-0.4040951430797577,-0.01122376043349504,0.3340398669242859,0.8514685034751892,0.2508544325828552,0.6956469416618347,-0.6731622815132141,-1.272790908813477,14.90517044067383,-33.55181884765625,2,1
1562614315.122707,168,0,309578.565090875,0.8934176818837325,0.3567094494132989,-0.7693200583245767,1.592836380004883,-0.4629794955253601,0.8634895086288452,0.1571176052093506,-0.003987431526184082,-0.3552677631378174,2,-0.4040951430797577,-0.01122376043349504,0.3340398669242859,0.8514685034751892,0.2508544325828552,0.6956469416618347,-0.6731622815132141,-1.272790908813477,14.90517044067383,-33.55181884765625,2,1
1562614315.156529,169,0,309578.600002875,0.9101272715136645,0.3360306808454963,-0.7025233823670975,1.718584537506104,-1.059415817260742,1.029620051383972,0.2599609196186066,0.1522800922393799,-0.2116793394088745,2,-0.3737255334854126,-0.008065392263233662,0.3551870286464691,0.8568001389503479,0.2516640722751617,0.6461456418037415,-0.7205283641815186,-1.752498626708984,12.33835220336914,-34.7489013671875,2,1
1562614315.188602,170,0,309578.6349880417,0.9303866658320193,0.3168748411990769,-0.6331128461504023,1.737789154052734,-0.7435683012008667,1.08676016330719,0.3461565375328064,0.1203431487083435,-0.02211171388626099,2,-0.3419919908046722,-0.003893867367878556,0.3770711123943329,0.8607228398323059,0.2512075304985046,0.5916571617126465,-0.7660526037216187,-2.779682159423828,9.285178184509277,-35.6591796875,2,1
1562614315.23133,171,0,309578.6699310417,0.9578064601489064,0.3176211133384699,-0.5611393730105455,1.754559278488159,-0.2594419717788696,1.387079834938049,0.3248312771320343,0.07879060506820679,0.1203848719596863,2,-0.3126833438873291,0.00887176301330328,0.3983514308929443,0.8622450828552246,0.2644149959087372,0.5321512222290039,-0.804300844669342,-3.378626823425293,5.963900566101074,-36.51559448242188,2,1
1562614315.254381,172,0,309578.7049040417,1.000607880815289,0.329293355485918,-0.4850189914646486,1.741092920303345,-0.3494552671909332,1.864183068275452,0.2021544873714447,0.1137571930885315,0.1234636902809143,2,-0.2841803729534149,0.02597177401185036,0.424822598695755,0.8591232895851135,0.2860783934593201,0.4662251472473145,-0.8371339440345764,-3.797200202941895,2.225038528442383,-36.65798950195312,2,1
1562614315.289949,173,0,309578.7398160417,1.050510097316325,0.3328699570292836,-0.4016262345900978,1.880625247955322,-0.5759490132331848,2.017325162887573,0.1145859062671661,0.2002825438976288,0.1650829911231995,2,-0.251594603061676,0.04181769117712975,0.4559769928455353,0.8526643514633179,0.3007556200027466,0.3909156918525696,-0.8699028491973877,-4.433689117431641,0.2783679962158203,-36.81326293945312,2,1
1562614315.320803,174,0,309578.7747890417,1.092780815235445,0.3287766399476406,-0.3162731572502021,1.974222302436829,-0.4848429560661316,1.748463273048401,0.08851224184036255,0.3305109739303589,0.2411544322967529,2,-0.2167084962129593,0.05735429376363754,0.4841865301132202,0.8457607626914978,0.306870698928833,0.3110267221927643,-0.8994958400726318,-5.717997550964355,-4.100191116333008,-36.76004028320312,2,1
1562614315.354392,175,0,309578.8097010417,1.132307545580603,0.3289001376183828,-0.2334749593591401,1.99007248878479,-0.03859527409076691,1.354075074195862,0.07366728782653809,0.4336773455142975,0.3683213591575623,2,-0.1841877847909927,0.07559406757354736,0.5094591975212097,0.8371450304985046,0.3142387270927429,0.2313595861196518,-0.9207208156585693,-6.759825706481934,-8.155820846557617,-36.28900146484375,2,1
1562614315.391594,176,0,309578.8446740417,1.159212101513897,0.341085669026541,-0.1578953633770429,1.818028688430786,0.4046517312526703,1.008928418159485,0.008728504180908203,0.4757082760334015,0.4540907144546509,2,-0.1576916575431824,0.09898888319730759,0.5268688201904297,0.8293032646179199,0.3303492367267609,0.1572401076555252,-0.9306690692901611,-7.164587020874023,-11.83110237121582,-35.51480102539062,2,1
1562614315.421159,177,0,309578.8796170417,1.172186465669278,0.36291701332305,-0.09593066224651099,1.449673414230347,0.6621878743171692,0.6985206604003906,-0.1078904867172241,0.4661356806755066,0.5255216956138611,2,-0.138991042971611,0.1240888014435768,0.536194920539856,0.8232730627059937,0.3533705174922943,0.09578359127044678,-0.9305669069290161,-7.017068862915039,-13.38387680053711,-34.91070556640625,2,1
1562614315.465688,178,0,309578.9145900417,1.184112659391667,0.3881785462373085,-0.04864422566063364,1.151538252830505,0.7408652901649475,0.4168256521224976,-0.1930004954338074,0.5619396567344666,0.5318347215652466,2,-0.1274059861898422,0.1466804444789886,0.5435358881950378,0.816591203212738,0.3780553638935089,0.04862504452466965,-0.9245051145553589,-6.368346214294434,-16.06818962097168,-33.64324951171875,2,1
1562614315.486054,179,0,309578.9495020417,1.184171408593072,0.4104041721086688,-0.02187337078342648,0.5296781063079834,0.5767891407012939,-0.1102252677083015,-0.2867211699485779,0.7000977993011475,0.5110387802124023,2,-0.1225974410772324,0.1630941927433014,0.5445021986961365,0.8135647773742676,0.3988845348358154,0.02187162637710571,-0.9167402982711792,-5.667593955993652,-17.51788139343262,-32.559814453125,2,1
1562614315.518089,180,0,309578.9844760417,1.168437677240855,0.4217277675925411,-0.03530059168807421,-0.5748186111450195,0.1402798593044281,-0.833339512348175,-0.2971175312995911,0.6749877333641052,0.4510593414306641,2,-0.1298196464776993,0.1650440543889999,0.5361660122871399,0.8175776600837708,0.409082442522049,0.03529326245188713,-0.9118146300315857,-4.727053642272949,-17.26319313049316,-32.15469360351562,2,1
1562614315.552423,181,0,309579.0194180417,1.138492452401542,0.4165083371600777,-0.08791902905400491,-1.246429085731506,-0.190710037946701,-1.715786337852478,-0.1881978511810303,0.9261093735694885,0.2575927376747131,2,-0.1475468873977661,0.1508059650659561,0.5191888809204102,0.8282091617584229,0.4030071794986725,0.08780580759048462,-0.9109749794006348,-3.793481826782227,-15.09233283996582,-32.89825439453125,2,1
1562614315.58462,182,0,309579.0543610417,1.097274543608836,0.40191914251136,-0.1847784161601171,-2.697867870330811,-0.2968416213989258,-2.357726097106934,-0.04604417085647583,0.8224950432777405,0.1499143242835999,2,-0.1807910054922104,0.122441329061985,0.4931372702121735,0.8421035408973694,0.3845261335372925,0.1837287247180939,-0.9046454429626465,-3.190080642700195,-13.18005180358887,-33.56979370117188,2,1
1562614315.631919,183,0,309579.0893030417,1.075475653561097,0.3814857763628809,-0.3332276003114422,-4.079532623291016,-0.4990648925304413,-1.985416054725647,0.1537763476371765,0.37865149974823,-0.1356227993965149,2,-0.2356164157390594,0.07717299461364746,0.4689361751079559,0.8477193713188171,0.3518202006816864,0.3270947933197021,-0.8770584464073181,-2.471638679504395,-6.719161987304688,-35.13995361328125,2,1
1562614315.649616,184,0,309579.1242770417,1.073519975681697,0.365823005289499,-0.4755562951334121,-3.403998136520386,-0.3453095555305481,-1.320301651954651,0.2329058945178986,0.324984222650528,-0.3333045244216919,2,-0.2894375026226044,0.03347843512892723,0.451857715845108,0.8431665897369385,0.3180249333381653,0.4578330814838409,-0.830210268497467,-2.843315124511719,0.5091381072998047,-36.08236694335938,2,1
1562614315.683891,185,0,309579.1591890417,1.070714392898324,0.3629513417641374,-0.5914931616534241,-3.072601556777954,0.1862194538116455,-1.28154993057251,0.2327606081962585,0.2313949465751648,-0.3495062589645386,2,-0.3346340656280518,0.002246973104774952,0.434744119644165,0.8360697627067566,0.2947176396846771,0.5576011538505554,-0.7760300040245056,-2.817594528198242,6.325136184692383,-36.12554931640625,2,1
1562614315.715766,186,0,309579.1591890417,1.070714392898324,0.3629513417641374,-0.5914931616534241,-3.072601556777954,0.1862194538116455,-1.28154993057251,0.2327606081962585,0.2313949465751648,-0.3495062589645386,2,-0.3346340656280518,0.002246973104774952,0.434744119644165,0.8360697627067566,0.2947176396846771,0.5576011538505554,-0.7760300040245056,-2.817594528198242,6.325136184692383,-36.12554931640625,2,1
1562614315.749787,187,0,309579.1941620417,1.057278660973463,0.380530297536413,-0.7135647603045231,-3.081290721893311,1.011196613311768,-1.667461395263672,0.2437633275985718,-0.1106856465339661,-0.2937014698982239,2,-0.3855197429656982,-0.01995467394590378,0.4070331752300262,0.8278286457061768,0.2808005511760712,0.6545330286026001,-0.7019526958465576,-2.751388549804688,9.184296607971191,-35.71209716796875,2,1
1562614315.790372,188,0,309579.2291040417,1.035409799786573,0.4037114410471394,-0.8118735076708861,-1.935289025306702,1.047616243362427,-1.28115713596344,0.1922426521778107,-0.5101152658462524,-0.3739581108093262,2,-0.427322119474411,-0.03139572218060493,0.3766435086727142,0.8213098049163818,0.2703249752521515,0.725577712059021,-0.6328202486038208,-1.970208168029785,14.46830558776855,-34.14788818359375,2,1
1562614315.815802,189,0,309579.2640780417,1.007342083817121,0.4107271240348616,-0.8528354654188773,-0.3473226130008698,0.6527553796768188,-0.8810346126556396,0.1232741475105286,-0.5394566059112549,-0.2958990335464478,2,-0.4442451596260071,-0.0328262634575367,0.3563202917575836,0.8213431239128113,0.262663871049881,0.7531487345695496,-0.6031373739242554,-1.267892837524414,17.08846282958984,-32.91754150390625,2,1
1562614315.847652,190,0,309579.2989900417,0.9565744754367236,0.3957094619378361,-0.8714482519013325,-0.1269927173852921,0.7250639200210571,-1.222169876098633,0.1605287492275238,-0.3687086701393127,-0.2236869335174561,2,-0.4494125247001648,-0.03226703405380249,0.3354600667953491,0.8273171782493591,0.2481297701597214,0.7652620077133179,-0.5939744710922241,-1.353603363037109,17.7889575958252,-32.51455688476562,2,1
1562614315.88144,191,0,309579.3339630417,0.9026435291696191,0.3789940738568123,-0.8947450303250689,-0.3193937838077545,0.6799319386482239,-1.028753876686096,0.2296725660562515,-0.2993288636207581,-0.2540313005447388,2,-0.4563852846622467,-0.03247964754700661,0.3128654956817627,0.8323296904563904,0.2315068691968918,0.7800495624542236,-0.5813151001930237,-1.381864547729492,18.71092987060547,-32.076416015625,2,1
1562614315.913642,192,0,309579.3688750417,0.8781554244691454,0.3800343221460203,-0.9165192929474252,-0.4856327176094055,0.5193235278129578,-0.3817838728427887,0.2200575917959213,-0.367577075958252,-0.2816568613052368,2,-0.4652254283428192,-0.0313555970788002,0.298751562833786,0.8326641321182251,0.2257562875747681,0.7934881448745728,-0.5651642680168152,-1.596887588500977,19.12975692749023,-31.5853271484375,2,1
1562614315.947414,193,0,309579.4038480417,0.8923583739126462,0.4085517207698353,-0.936848301782174,-0.6926219463348389,0.4411844313144684,0.1639665365219116,0.1482976973056793,-0.4384542107582092,-0.3026769161224365,2,-0.4769220054149628,-0.02748677507042885,0.2944126427173615,0.8277143239974976,0.2353213429450989,0.8056952357292175,-0.5435797572135925,-1.028726577758789,20.24263381958008,-30.60174560546875,2,1
1562614315.979422,194,0,309579.4387910417,0.9305467669454771,0.4466398550943733,-0.9467477130187471,-0.3770462572574615,0.04757426679134369,0.5976393222808838,0.03711062669754028,-0.4042543768882751,-0.405692458152771,2,-0.4857512712478638,-0.02330314740538597,0.2991804182529449,0.8209713101387024,0.2523921132087708,0.8115193843841553,-0.5270053148269653,-0.2298851013183594,20.6767406463623,-29.95135498046875,2,1
1562614316.030533,195,0,309579.4737640417,0.9647242808563273,0.4693515393955706,-0.9377404851772974,0.05708392709493637,-0.2121156752109528,0.5394070744514465,0.01541182398796082,-0.2382680773735046,-0.4320398569107056,2,-0.4855698943138123,-0.02010344713926315,0.3093834519386292,0.8173736333847046,0.2675905227661133,0.8062233924865723,-0.5276354551315308,-0.01398658752441406,20.08436584472656,-30.27923583984375,2,1
1562614316.045243,196,0,309579.5086760417,0.9891891963975784,0.4864636918297056,-0.9293609335775734,-0.1605921983718872,0.08972486853599548,0.5067005157470703,0.1502311527729034,-0.1381895542144775,-0.3840504288673401,2,-0.4850216209888458,-0.01695661619305611,0.3168565034866333,0.8149039745330811,0.2797284722328186,0.8012377023696899,-0.5289329886436462,-0.07163810729980469,19.89401817321777,-30.23324584960938,2,1
1562614316.079312,197,0,309579.5436490417,1.015844254011083,0.5036607841817657,-0.9192367328699428,0.2625745534896851,-0.1963135302066803,0.5366700291633606,0.1814964413642883,0.01733851432800293,-0.4809670448303223,2,-0.4839915931224823,-0.01382256206125021,0.3255580961704254,0.8121410608291626,0.2926830351352692,0.7951390147209167,-0.5311221480369568,0.2264938354492188,19.44835472106934,-30.12261962890625,2,1
1562614316.111275,198,0,309579.5785920417,1.028503545224642,0.5085608104128735,-0.891126031114673,0.7128856778144836,0.008152060210704803,0.6701244115829468,0.305537223815918,0.09960860013961792,-0.480063796043396,2,-0.4748122692108154,-0.007537370081990957,0.3351999819278717,0.8137183785438538,0.3060475289821625,0.7777799963951111,-0.5489929914474487,0.5790882110595703,18.38519287109375,-30.55230712890625,2,1
1562614316.145666,199,0,309579.6135650417,1.046063941130973,0.5435091873532284,-0.8551556024137568,0.7492186427116394,1.072819948196411,0.7796005010604858,0.2482997179031372,-0.07584685087203979,-0.3644423484802246,2,-0.4680555760860443,0.01207281555980444,0.3414333462715149,0.8149856328964233,0.3392979204654694,0.7546730041503906,-0.5615564584732056,2.408340454101562,16.93476676940918,-30.21432495117188,2,1
1562614316.195898,200,0,309579.6484660417,1.053122647977092,0.6201448787612246,-0.81317817978952,1.032751560211182,2.428468704223633,0.785286009311676,0.2453920841217041,-0.04534459114074707,-0.2574970722198486,2,-0.4664467871189117,0.05301432311534882,0.3352539837360382,0.8168363571166992,0.3993643522262573,0.7264748811721802,-0.5592337250709534,5.637630462646484,15.63457679748535,-28.62628173828125,2,1
1562614316.211037,201,0,309579.6834390417,1.058156990324274,0.7135938099106293,-0.7500642687668817,1.521305322647095,2.595743417739868,1.625537395477295,0.2476104497909546,0.1464330554008484,-0.1455392241477966,2,-0.4603426456451416,0.1073197349905968,0.3296306431293488,0.8172581195831299,0.4789019227027893,0.6816858053207397,-0.5531342625617981,7.823566436767578,14.96855449676514,-27.61074829101562,2,1
1562614316.243033,202,0,309579.7183510417,1.093592024492235,0.8231602781688062,-0.6477657762256911,1.463451385498047,2.301093578338623,3.032554864883423,0.1345677971839905,0.1402560472488403,0.06695735454559326,2,-0.4463416337966919,0.1723038107156754,0.3430005609989166,0.8083571195602417,0.5847569108009338,0.6034062504768372,-0.5421810746192932,11.73043251037598,11.41872406005859,-25.0806884765625,2,1
1562614316.277198,203,0,309579.7183510417,1.093592024492235,0.8231602781688062,-0.6477657762256911,1.463451385498047,2.301093578338623,3.032554864883423,0.1345677971839905,0.1402560472488403,0.06695735454559326,2,-0.4463416337966919,0.1723038107156754,0.3430005609989166,0.8083571195602417,0.5847569108009338,0.6034062504768372,-0.5421810746192932,11.73043251037598,11.41872406005859,-25.0806884765625,2,1
1562614316.308853,204,0,309579.7533240417,1.148431761873043,0.9121066245996032,-0.537930119722199,0.7547515034675598,1.240450501441956,3.226091623306274,0.003392457962036133,0.1516067385673523,0.1392959952354431,2,-0.4309308230876923,0.2268916666507721,0.3718677461147308,0.7902740836143494,0.6791117787361145,0.5123595595359802,-0.5256375670433044,14.95442962646484,6.394987106323242,-22.78878784179688,2,1
1562614316.351322,205,0,309579.7882670417,1.219169586103781,0.9780632985368186,-0.4583319425614124,-0.578078031539917,1.122419476509094,2.578114986419678,-0.02751260995864868,0.1930870413780212,0.2068570852279663,2,-0.4263441860675812,0.2602753341197968,0.4047118127346039,0.7659607529640198,0.7438144683837891,0.4424528181552887,-0.5009747743606567,16.23952865600586,1.901655197143555,-21.34658813476562,2,1
1562614316.375384,206,0,309579.8232400417,1.285304060874169,1.082223423475712,-0.4231544573716967,-0.9716486930847168,2.82079029083252,1.29098653793335,-0.07528543472290039,0.1848164200782776,0.2756334543228149,2,-0.4459117949008942,0.2952609360218048,0.4156535565853119,0.7356737852096558,0.805121123790741,0.4106387197971344,-0.4279673099517822,17.83807754516602,0.08394241333007812,-18.64218139648438,2,1
1562614316.410684,207,0,309579.8581520417,1.307907758567729,1.183043706853464,-0.3902694987805494,0.8964277505874634,1.781482696533203,1.446248531341553,-0.1115901470184326,0.01405948400497437,0.3243571519851685,2,-0.4605284333229065,0.3362659513950348,0.4095709621906281,0.7121028304100037,0.8561500310897827,0.3804376721382141,-0.3496775329113007,19.34212493896484,-0.7331829071044922,-16.41482543945312,2,1
1562614316.440679,208,0,309579.8931250417,1.253450650091927,1.257083531720577,-0.2860926436242651,2.57632303237915,2.817471265792847,2.328688383102417,-0.1744884848594666,0.2367275655269623,0.2736274003982544,2,-0.4347160458564758,0.403729259967804,0.4016724228858948,0.6976274251937866,0.9125320911407471,0.2822058498859406,-0.2960492968559265,20.64662551879883,-4.44666862487793,-12.44161987304688,2,1
1562614316.474656,209,0,309579.9280680417,1.203857401986169,1.340317137304908,-0.2189914205537364,1.598697900772095,2.857234954833984,1.053253173828125,-0.258893609046936,0.4295421242713928,0.2610663175582886,2,-0.4201779067516327,0.4603872895240784,0.3851684629917145,0.6805433630943298,0.9503055810928345,0.2172452360391617,-0.2229881435632706,21.69435119628906,-8.535177230834961,-7.750457763671875,2,1
1562614316.511353,210,0,309579.9630410417,1.164163329237533,1.421357165666141,-0.1881703721096764,1.025976061820984,2.140427112579346,0.4013439416885376,-0.4270062446594238,0.4064420759677887,0.06363594532012939,2,-0.4165293872356415,0.5033642053604126,0.3636406660079956,0.6639978885650635,0.9713996052742004,0.1870618760585785,-0.1462554931640625,22.39104461669922,-10.30516052246094,-2.708831787109375,2,1
1562614316.540399,211,0,309579.9979530417,1.158729377121651,1.446845136371187,-0.1757087871730083,-0.2660009264945984,0.05310719832777977,0.4730753898620605,-0.5265277624130249,0.5299804210662842,-0.07975542545318604,2,-0.4160507619380951,0.5157873034477234,0.3601846694946289,0.6566066741943359,0.9770489931106567,0.1748060584068298,-0.1217304393649101,22.55954360961914,-10.61933708190918,-1.630828857421875,2,1
1562614316.58511,212,0,309580.0329260417,1.183956210165746,1.420753213229623,-0.1547188345513425,-0.7811992168426514,-1.195236444473267,0.5818719267845154,-0.5565841197967529,0.6174415349960327,0.0702480673789978,2,-0.4114160239696503,0.5068424344062805,0.3799448907375336,0.6553544998168945,0.9769537448883057,0.1541022956371307,-0.1476951986551285,22.1461067199707,-11.61755561828613,-1.887542724609375,2,1
1562614316.606419,213,0,309580.0678390417,1.212793749218992,1.391937974621062,-0.1664071684374406,-0.7910637855529785,-0.8864478468894958,-0.6138489842414856,-0.5227256417274475,0.5643843412399292,0.1883184909820557,2,-0.4165303409099579,0.4886492788791656,0.3920721709728241,0.6587896943092346,0.9704541563987732,0.1656402200460434,-0.1754487156867981,21.76971054077148,-11.6442985534668,-3.96002197265625,2,1
1562614316.639046,214,0,309580.1028120417,1.212786286167401,1.367622386332423,-0.2087360274272,0.1768175810575485,-0.4610863626003265,-1.505327701568604,-0.364721417427063,0.7475777268409729,0.1554135680198669,2,-0.4244390726089478,0.4702679216861725,0.3852907717227936,0.6710071563720703,0.9581711888313293,0.2072235345840454,-0.1973991096019745,21.8896484375,-9.923063278198242,-5.41754150390625,2,1
1562614316.672193,215,0,309580.1377540417,1.163981558362154,1.352321421944086,-0.2821677561183434,1.11488664150238,0.1121782660484314,-2.84415602684021,-0.1844289302825928,0.7072001695632935,0.1842660903930664,2,-0.4322003424167633,0.4572941660881042,0.35097536444664,0.6934704184532166,0.9376233220100403,0.2784383296966553,-0.2081698179244995,22.9088134765625,-6.62921142578125,-5.40496826171875,2,1
1562614316.704209,216,0,309580.1727270417,1.107075527142715,1.345894745231401,-0.3929259521795911,0.4898332357406616,0.2686183154582977,-3.600150585174561,0.01042711734771729,0.2647468149662018,0.167249321937561,2,-0.4512129127979279,0.4397717714309692,0.2996837496757507,0.7163779139518738,0.9005278944969177,0.3828930258750916,-0.2060153931379318,23.47950744628906,-4.09431266784668,-5.1168212890625,2,1
1562614316.750091,217,0,309580.2076400417,1.08358741049188,1.328318001518814,-0.5062237598564112,-0.4117547571659088,-0.4350134134292603,-3.022099256515503,0.2699211835861206,0.3129988312721252,0.02646917104721069,2,-0.4766797125339508,0.4096082150936127,0.2608711123466492,0.7327645421028137,0.8489966988563538,0.4848780930042267,-0.2099951207637787,24.04414367675781,1.733953475952148,-4.63629150390625,2,1
1562614316.770561,218,0,309580.2426130417,1.07661445300705,1.306453042826762,-0.6093728929775274,-0.7212952971458435,-0.5103877186775208,-2.948148727416992,0.3920615315437317,0.3898749351501465,0.03999900817871094,2,-0.5017749071121216,0.375630259513855,0.231845885515213,0.743889331817627,0.7915235757827759,0.5723533630371094,-0.2142477035522461,23.93107223510742,6.949943542480469,-5.479888916015625,2,1
1562614316.804089,219,0,309580.2775550417,1.088566606867522,1.299235001595581,-0.7233364838637327,-1.310656905174255,-0.3505496382713318,-3.058223247528076,0.4631179571151733,-0.0881965160369873,0.03113961219787598,2,-0.5339974761009216,0.3381000757217407,0.2025602161884308,0.7480003833770752,0.7221312522888184,0.661889374256134,-0.2010700702667236,22.71956634521484,12.24461555480957,-6.002960205078125,2,1
1562614316.836974,220,0,309580.2775550417,1.088566606867522,1.299235001595581,-0.7233364838637327,-1.310656905174255,-0.3505496382713318,-3.058223247528076,0.4631179571151733,-0.0881965160369873,0.03113961219787598,2,-0.5339974761009216,0.3381000757217407,0.2025602161884308,0.7480003833770752,0.7221312522888184,0.661889374256134,-0.2010700702667236,22.71956634521484,12.24461555480957,-6.002960205078125,2,1
1562614316.870195,221,0,309580.3124980417,1.116009080822352,1.324218184410145,-0.8172851289831533,-1.084445118904114,0.4951599538326263,-1.980179786682129,0.4858062863349915,-0.4525808095932007,-0.008876681327819824,2,-0.564581573009491,0.312641978263855,0.175989031791687,0.7433240413665771,0.6635089516639709,0.7292910218238831,-0.1670052856206894,21.37091064453125,16.4880199432373,-5.431549072265625,2,1
1562614316.906689,222,0,309580.3474410417,1.129797001134657,1.362726459225005,-0.8630047237040387,-0.2434644252061844,0.9259543418884277,-0.8951008319854736,0.3313571214675903,-0.5098536014556885,-0.07281279563903809,2,-0.5806548595428467,0.3093344867229462,0.1551844030618668,0.7369328737258911,0.6361346840858459,0.7597995400428772,-0.1343042254447937,21.38480377197266,17.51092910766602,-4.904083251953125,2,1
1562614316.935986,223,0,309580.3824140417,1.114585511768076,1.379273869030638,-0.8861054571180405,0.2945909202098846,0.6869284510612488,-0.6337437033653259,0.3008301854133606,-0.3682512044906616,-0.1230777502059937,2,-0.5847080945968628,0.3129271268844604,0.1371394842863083,0.7357892990112305,0.6208699941635132,0.7746145725250244,-0.120386116206646,21.22313690185547,18.76191520690918,-3.901336669921875,2,1
1562614316.967879,224,0,309580.4173260417,1.086799773434578,1.37657872715623,-0.901974808227783,0.4348047375679016,0.5150325894355774,-0.4853055477142334,0.3276699781417847,-0.2904670238494873,-0.03243845701217651,2,-0.5837363600730896,0.3153034150600433,0.1224261745810509,0.7381377816200256,0.6084039211273193,0.7845529317855835,-0.1196712404489517,20.72731399536133,19.41118621826172,-3.54095458984375,2,1
1562614317.001911,225,0,309580.4522990417,1.068970087358911,1.380149072339268,-0.9111734191895748,0.09058743715286255,0.4844288527965546,-0.1950065940618515,0.3355333209037781,-0.3319346904754639,-0.02327334880828857,2,-0.5831990838050842,0.319086104631424,0.1117474734783173,0.7386307120323181,0.601715624332428,0.7902233600616455,-0.1161257699131966,20.45835494995117,19.71282005310059,-3.3101806640625,2,1
1562614317.033859,226,0,309580.4872420417,1.085374273465362,1.405830520511688,-0.9102338626030568,-0.4707262217998505,0.2566806375980377,0.2191058993339539,0.2559522986412048,-0.3859544396400452,-0.126684308052063,2,-0.5870541930198669,0.3240189552307129,0.1105854585766792,0.7335871458053589,0.6052315831184387,0.7896472215652466,-0.1007581800222397,20.43133163452148,19.78166770935059,-2.824127197265625,2,1
1562614317.070755,227,0,309580.5222150417,1.129489415911347,1.436576644914618,-0.8947023497288439,-0.8209846019744873,-0.3365945816040039,0.6344882845878601,0.212587833404541,-0.3873007893562317,-0.2444904446601868,2,-0.5926839113235474,0.3268909454345703,0.1228408813476562,0.7257949709892273,0.6201232075691223,0.7800228595733643,-0.08373618125915527,20.98069000244141,19.39300155639648,-2.452178955078125,2,1
1562614317.099703,228,0,309580.5571270417,1.172603787698761,1.448954921425657,-0.8698515879799411,-0.5821276903152466,-0.6767807006835938,0.693794310092926,0.2375045418739319,-0.1849417090415955,-0.2754753828048706,2,-0.5953746438026428,0.3260919749736786,0.143144503235817,0.7202101945877075,0.6401587724685669,0.7642332315444946,-0.07838611304759979,21.62345886230469,18.38946914672852,-2.652557373046875,2,1
1562614317.1455,229,0,309580.5921000417,1.195347076524897,1.445578448389129,-0.8508124603790183,-0.2825436294078827,-0.4880991876125336,0.4573737978935242,0.261371374130249,-0.06545364856719971,-0.2555813789367676,2,-0.5949016213417053,0.3239093124866486,0.1587426513433456,0.7183144092559814,0.6542099714279175,0.7518163919448853,-0.08234963566064835,21.90422821044922,17.43956565856934,-3.12786865234375,2,1
1562614317.165573,230,0,309580.6270430417,1.200488923693562,1.432832534211605,-0.8395617243536123,0.105208545923233,-0.4510242342948914,0.2726487219333649,0.4173911213874817,0.0676683783531189,-0.2571091651916504,2,-0.5923597812652588,0.3212328255176544,0.1681451201438904,0.719476580619812,0.661443829536438,0.7443504929542542,-0.09183872491121292,21.90145111083984,16.71563911437988,-3.737640380859375,2,1
1562614317.199617,231,0,309580.661999125,1.179099771887924,1.410746268014708,-0.8296097848742832,0.6225261688232422,0.02906877547502518,0.2101707309484482,0.5024337768554688,0.1453651785850525,-0.1763920783996582,2,-0.5849310159683228,0.3225772678852081,0.1702394634485245,0.7244433164596558,0.6665346026420593,0.737667977809906,-0.1075992286205292,21.99880981445312,16.47469139099121,-3.98004150390625,2,1
1562614317.23277,232,0,309580.696942125,1.15794732157883,1.401957624149381,-0.8158417399127008,0.2783908545970917,0.1336166262626648,0.4321235120296478,0.3569973707199097,-0.1407100558280945,-0.1546059846878052,2,-0.5777020454406738,0.329675555229187,0.169679194688797,0.7271748781204224,0.6755115985870361,0.7283026576042175,-0.1151487529277802,22.13279724121094,15.96863842010498,-3.525299072265625,2,1
1562614317.265642,233,0,309580.731915125,1.163292676900182,1.389874154297686,-0.7875139627518064,-0.01438466366380453,-0.8415117263793945,1.023064732551575,0.2553475499153137,-0.206244170665741,-0.1531656384468079,2,-0.5711082816123962,0.3321939408779144,0.1844242513179779,0.727647066116333,0.694092333316803,0.7086012959480286,-0.1269650310277939,22.49421691894531,15.62573623657227,-3.337554931640625,2,1
1562614317.312055,234,0,309580.766827125,1.168910425521746,1.34716970443934,-0.7465943704946747,0.2206143885850906,-1.5137939453125,1.18287992477417,0.2651587724685669,0.06235033273696899,-0.000774383544921875,2,-0.5581946969032288,0.3271534144878387,0.2118105292320251,0.7324792146682739,0.7157291769981384,0.679142951965332,-0.1627786457538605,22.3001594543457,14.32761383056641,-5.3626708984375,2,1
1562614317.331898,235,0,309580.801800125,1.170262294203332,1.296913359464299,-0.7056008509102671,0.2506988346576691,-1.356456875801086,1.137480139732361,0.2112792730331421,0.0842893123626709,0.1707389950752258,2,-0.5426024794578552,0.320371687412262,0.2391200959682465,0.7387599349021912,0.7328498363494873,0.6484913229942322,-0.2058890610933304,22.15560150146484,12.71330833435059,-7.56884765625,2,1
1562614317.363513,236,0,309580.836743125,1.181151879171904,1.266619512647042,-0.6644727501001593,-0.005068445112556219,-0.8991768360137939,1.260889410972595,0.1353327035903931,-0.03364360332489014,0.2452976703643799,2,-0.5299013257026672,0.3182954788208008,0.2639771103858948,0.7404110431671143,0.7511026263237,0.6166441440582275,-0.2357851415872574,22.20895767211914,11.94311714172363,-8.8050537109375,2,1
1562614317.39731,237,0,309580.871716125,1.206587146042885,1.255492824779177,-0.6171044150523064,-0.172610729932785,-0.7225674986839294,1.580883979797363,0.05605936050415039,-0.06316465139389038,0.2175451517105103,2,-0.5198812484741211,0.3213553130626678,0.2906345129013062,0.7361969351768494,0.7753524780273438,0.5786760449409485,-0.2529084980487823,22.32659149169922,10.11219787597656,-10.127685546875,2,1
1562614317.429378,238,0,309580.871716125,1.206587146042885,1.255492824779177,-0.6171044150523064,-0.172610729932785,-0.7225674986839294,1.580883979797363,0.05605936050415039,-0.06316465139389038,0.2175451517105103,2,-0.5198812484741211,0.3213553130626678,0.2906345129013062,0.7361969351768494,0.7753524780273438,0.5786760449409485,-0.2529084980487823,22.32659149169922,10.11219787597656,-10.127685546875,2,1
1562614317.47159,239,0,309580.906628125,1.234237124397381,1.242145117233556,-0.559868345743771,-0.05708917230367661,-0.901414155960083,1.856075644493103,-0.002881526947021484,0.003419220447540283,0.1779292225837708,2,-0.5068854093551636,0.3260721266269684,0.32117959856987,0.7304708957672119,0.801974892616272,0.5310746431350708,-0.273488312959671,22.10984802246094,7.574378967285156,-11.29827880859375,2,1
1562614317.495065,240,0,309580.941601125,1.258204833349998,1.219912557246334,-0.4936142480917272,0.1656918525695801,-1.003618478775024,2.027622699737549,-0.05644029378890991,0.08782815933227539,0.2236317992210388,2,-0.4887674450874329,0.3312982320785522,0.3545403480529785,0.7250165343284607,0.8269689679145813,0.4738117754459381,-0.3026957213878632,21.70219421386719,4.272990226745605,-12.94851684570312,2,1
1562614317.551288,241,0,309580.976513125,1.271654817854118,1.198207183287856,-0.4230836779733647,0.5295450687408447,-0.6299609541893005,1.963768601417542,-0.120911717414856,0.221790999174118,0.3248885869979858,2,-0.4669192135334015,0.3406186699867249,0.3842248618602753,0.7199559211730957,0.8492648005485535,0.4105741679668427,-0.3319307267665863,21.66858673095703,2.678065299987793,-13.5540771484375,2,1
1562614317.561065,242,0,309581.011487125,1.273087798706929,1.188963296266959,-0.3546714123374758,0.7435259819030762,-0.07681010663509369,1.756497859954834,-0.2016875743865967,0.2930183410644531,0.3748899698257446,2,-0.4452226758003235,0.3564569652080536,0.4052652716636658,0.7144756317138672,0.8702262043952942,0.3472822606563568,-0.3494304120540619,21.23377990722656,-0.8290920257568359,-14.494384765625,2,1
1562614317.59501,243,0,309581.046429125,1.270387816127812,1.195463113147101,-0.2946190583768094,0.6485390067100525,0.3233940303325653,1.459161043167114,-0.3159520626068115,0.2997702658176422,0.3695637583732605,2,-0.4279572069644928,0.3761101365089417,0.4186554253101349,0.7071927189826965,0.8902978897094727,0.2903753519058228,-0.3507875800132751,20.7717399597168,-4.055393218994141,-14.34933471679688,2,1
1562614317.626857,244,0,309581.081402125,1.268652894633812,1.206647047000336,-0.2463934063659345,0.5034762024879456,0.2862904071807861,1.165133357048035,-0.3642393946647644,0.357636570930481,0.3132097721099854,2,-0.4152081906795502,0.3935773372650146,0.428149551153183,0.6995620727539062,0.906205952167511,0.2439078837633133,-0.3453980684280396,20.78638458251953,-6.661075592041016,-13.6617431640625,2,1
1562614317.660887,245,0,309581.116314125,1.265998922727615,1.211090296726014,-0.2088510092444222,0.4051811993122101,0.06237086653709412,0.8452293872833252,-0.3267431855201721,0.5310038924217224,0.2236455678939819,2,-0.403988778591156,0.4057314693927765,0.4358941614627838,0.6943855881690979,0.9156608581542969,0.2073360085487366,-0.3443500697612762,20.46969985961914,-8.496828079223633,-13.22897338867188,2,1
1562614317.710675,246,0,309581.151288125,1.263722434789259,1.210683963660772,-0.1921945638054721,0.1131913736462593,-0.06000802665948868,0.1697391271591187,-0.3428611755371094,0.5499053001403809,0.1915715932846069,2,-0.3982200622558594,0.4104572832584381,0.4393952786922455,0.6927319169044495,0.9186257719993591,0.191013514995575,-0.3458912074565887,20.42657089233398,-9.109491348266602,-13.38046264648438,2,1
1562614317.727188,247,0,309581.186230125,1.254121464770336,1.203385865229743,-0.202366586751541,0.2352521270513535,-0.1396923512220383,-0.7021694183349609,-0.220089316368103,0.7790814638137817,0.1406807899475098,2,-0.3978635370731354,0.407148152589798,0.4349456429481506,0.6976799368858337,0.9142162203788757,0.2009881883859634,-0.3518699705600739,20.29570388793945,-9.227287292480469,-13.21224975585938,2,1
1562614317.758755,248,0,309581.221203125,1.221018584374281,1.198085916689186,-0.2459776894556328,0.4066345691680908,0.1741375029087067,-1.983444690704346,-0.1714633703231812,0.7461774349212646,0.1705709099769592,2,-0.4038214981555939,0.4004223048686981,0.4132084250450134,0.7112306356430054,0.9033101201057434,0.2435047030448914,-0.3531803488731384,20.86249160766602,-7.555093765258789,-13.19937133789062,2,1
1562614317.792564,249,0,309581.256115125,1.188528892091037,1.199335082982818,-0.3341111129940802,-0.3909102380275726,0.306547999382019,-2.907111644744873,-0.04876959323883057,0.2549980282783508,0.1264364719390869,2,-0.4253249764442444,0.3842471837997437,0.3780209124088287,0.7270164489746094,0.8802714943885803,0.3279295563697815,-0.3429055213928223,22.13808822631836,-3.695646286010742,-12.7254638671875,2,1
1562614317.824602,250,0,309581.291089125,1.172919571530009,1.202601364574866,-0.4292420948399275,-0.5895516872406006,0.239051342010498,-2.485471725463867,0.1008685827255249,0.1199766099452972,0.05746555328369141,2,-0.4521687626838684,0.3631854653358459,0.345524936914444,0.7377345561981201,0.8483400940895081,0.4161817729473114,-0.3272794485092163,22.43379211425781,1.074398040771484,-12.37158203125,2,1
1562614317.859587,251,0,309581.326001125,1.159622246553843,1.205515817105282,-0.5101226840555545,-0.5605469942092896,0.2593215107917786,-2.261679172515869,0.2244787812232971,0.230169951915741,-0.006314337253570557,2,-0.4744197726249695,0.3450499475002289,0.3170584142208099,0.745211660861969,0.815108060836792,0.4882843196392059,-0.3117328286170959,22.68177795410156,2.975043296813965,-12.183837890625,2,1
1562614317.890474,252,0,309581.360974125,1.165299400243961,1.214147672482561,-0.5965592754297064,-1.259461998939514,0.06332144141197205,-2.216552734375,0.2637160420417786,0.009147167205810547,-0.06254208087921143,2,-0.501575231552124,0.3225010335445404,0.2919807434082031,0.7477717399597168,0.7752149105072021,0.5617994070053101,-0.2888307273387909,22.84273147583008,7.138116836547852,-11.811767578125,2,1
1562614317.924421,253,0,309581.395916125,1.18950207607697,1.233265315076428,-0.6723569238031086,-1.115205883979797,0.2427599132061005,-1.566551327705383,0.2566221356391907,-0.3389645218849182,-0.06264138221740723,2,-0.5287954807281494,0.301385909318924,0.2735130488872528,0.7448036670684814,0.7382115721702576,0.6228316426277161,-0.2590837478637695,22.17272567749023,11.04409980773926,-11.26669311523438,2,1
1562614317.956311,254,0,309581.430890125,1.198636743320795,1.257097729281526,-0.7130918622038991,-0.2533411681652069,0.6441013216972351,-0.7937297224998474,0.1763718128204346,-0.4056327342987061,-0.06611716747283936,2,-0.5439308285713196,0.2957085072994232,0.258119136095047,0.7416673302650452,0.7194325923919678,0.6541754007339478,-0.2333914637565613,22.13731384277344,12.939208984375,-10.41799926757812,2,1
1562614317.990848,255,0,309581.465802125,1.185202502882527,1.27418177544425,-0.7326411348412004,0.2589541673660278,0.7600381970405579,-0.5661231279373169,0.08494293689727783,-0.3109639883041382,-0.0593489408493042,2,-0.5490227341651917,0.2998840510845184,0.2424297779798508,0.741533100605011,0.710946798324585,0.6688354015350342,-0.2172871828079224,22.26747512817383,13.34036636352539,-10.16903686523438,2,1
1562614318.031003,256,0,309581.465802125,1.185202502882527,1.27418177544425,-0.7326411348412004,0.2589541673660278,0.7600381970405579,-0.5661231279373169,0.08494293689727783,-0.3109639883041382,-0.0593489408493042,2,-0.5490227341651917,0.2998840510845184,0.2424297779798508,0.741533100605011,0.710946798324585,0.6688354015350342,-0.2172871828079224,22.26747512817383,13.34036636352539,-10.16903686523438,2,1
1562614318.056225,257,0,309581.500775125,1.159786073985584,1.282376751609586,-0.7466106477936877,0.4527486860752106,0.6913308501243591,-0.5345643162727356,0.106983482837677,-0.2237035632133484,-0.03944867849349976,2,-0.5496560335159302,0.3057620525360107,0.2263839244842529,0.7437325119972229,0.7036769390106201,0.6791548728942871,-0.2087756246328354,22.59116744995117,13.92522239685059,-9.495208740234375,2,1
1562614318.08823,258,0,309581.535718125,1.137275990938047,1.289224354362992,-0.7617070277999912,0.2125280797481537,0.5856178998947144,-0.5457006692886353,0.1553704738616943,-0.1754263639450073,-0.02646863460540771,2,-0.5507506728172302,0.3100541532039642,0.2113780975341797,0.7455597519874573,0.6951610445976257,0.6901577711105347,-0.2010802328586578,22.7799186706543,14.62217998504639,-8.913421630859375,2,1
1562614318.122118,259,0,309581.570691125,1.137790487925062,1.30462652628215,-0.7780423011311279,-0.3380663394927979,0.3363385200500488,-0.3834356367588043,0.1639817953109741,-0.25917649269104,-0.07986295223236084,2,-0.5565086603164673,0.3108352720737457,0.2021373212337494,0.7435186505317688,0.687205970287323,0.7018862962722778,-0.187359094619751,22.62680816650391,15.51971817016602,-8.2298583984375,2,1
1562614318.154155,260,0,309581.605603125,1.161900013529327,1.328163641648883,-0.7866602990779943,-0.6252840161323547,0.1150132343173027,-0.02795909345149994,0.1274824142456055,-0.3747402429580688,-0.1695695519447327,2,-0.5647270679473877,0.3102357685565948,0.2017155438661575,0.7376638054847717,0.6855278611183167,0.7079986929893494,-0.1696742177009583,22.53050231933594,15.91804599761963,-7.64813232421875,2,1
1562614318.18875,261,0,309581.6405792917,1.192418004501627,1.348428734375067,-0.7846962753522443,-0.5373276472091675,-0.114074319601059,0.2317782342433929,0.1079217195510864,-0.3282776474952698,-0.2362597584724426,2,-0.5710687637329102,0.309601753950119,0.2078009694814682,0.7313317060470581,0.6901804208755493,0.7066103219985962,-0.1560544371604919,22.72914886474609,15.96416854858398,-7.464263916015625,2,1
1562614318.220564,262,0,309581.6754912917,1.21030445527085,1.352257776391462,-0.7761253585097587,-0.2571909725666046,-0.2721107602119446,0.1912446320056915,0.1856860518455505,-0.101682186126709,-0.247377336025238,2,-0.5722619295120239,0.3084757924079895,0.2159970998764038,0.7284945249557495,0.6966596841812134,0.7005196213722229,-0.1547179371118546,22.710693359375,15.71703433990479,-7.42022705078125,2,1
1562614318.26472,263,0,309581.7104642917,1.222386845617669,1.349998204609578,-0.7738416597476359,-0.243752509355545,-0.3452941179275513,0.04505191743373871,0.2643735408782959,-0.01460123062133789,-0.243134081363678,2,-0.5733444690704346,0.3048857152462006,0.2217769175767899,0.7274172306060791,0.6978673934936523,0.6988880634307861,-0.1566416472196579,22.95452117919922,15.27448272705078,-7.947723388671875,2,1
1562614318.285867,264,0,309581.7454072917,1.225209801960146,1.341325865537921,-0.7760513527257006,0.05632336065173149,-0.259472668170929,-0.09134340286254883,0.4699006080627441,0.1236364245414734,-0.2170077562332153,2,-0.5733091831207275,0.3002474009990692,0.2245811223983765,0.7285131812095642,0.6949772238731384,0.7004668116569519,-0.1623361557722092,22.71651458740234,15.28439331054688,-8.58917236328125,2,1
1562614318.319951,265,0,309581.7803802917,1.215726421678279,1.333124642189817,-0.7755929867021668,0.1780859977006912,0.09351442754268646,0.04518807679414749,0.5001944303512573,0.06370675563812256,-0.1592053771018982,2,-0.5708612203598022,0.3001075088977814,0.2236140370368958,0.7307871580123901,0.6939346194267273,0.700139582157135,-0.1681059002876282,22.66196823120117,15.38957500457764,-8.359375,2,1
1562614318.351869,266,0,309581.8152922917,1.22303052008351,1.334656243414362,-0.7630762608356785,-0.1594800502061844,-0.3354442119598389,0.6304658651351929,0.3262954354286194,-0.2651922702789307,-0.1774880886077881,2,-0.5692301392555237,0.3023856282234192,0.229841947555542,0.7291864156723022,0.7026569247245789,0.6911479830741882,-0.1690799593925476,22.84133529663086,14.88369941711426,-7.922454833984375,2,1
1562614318.385734,267,0,309581.8502652917,1.232802025944693,1.314752278007801,-0.724967364233354,0.2276434451341629,-0.9645981192588806,1.30693793296814,0.2632680535316467,-0.1838714480400085,-0.1002076864242554,2,-0.5593307614326477,0.3039169907569885,0.2510895729064941,0.7292034029960632,0.7241188287734985,0.6631110310554504,-0.1895671188831329,22.91885375976562,14.00058746337891,-8.48345947265625,2,1
1562614318.430855,268,0,309581.8852082917,1.234999747541756,1.277249165883104,-0.6750151269293311,0.365713894367218,-1.136626482009888,1.398334264755249,0.2540922164916992,0.07070046663284302,0.05178153514862061,2,-0.5424399375915527,0.3046501576900482,0.2777240872383118,0.7319948673248291,0.7473019957542419,0.6249091029167175,-0.2258943915367126,22.93366241455078,12.13317012786865,-10.19329833984375,2,1
1562614318.451597,269,0,309581.9201502917,1.242825371398295,1.245834738838407,-0.6246488535200219,0.1828778982162476,-0.9527427554130554,1.471629500389099,0.2117289900779724,0.08142435550689697,0.1559008359909058,2,-0.5261250138282776,0.3061055541038513,0.3042113184928894,0.7327669262886047,0.768714427947998,0.5848124623298645,-0.2589837312698364,22.81156158447266,9.609957695007324,-11.99356079101562,2,1
1562614318.483615,270,0,309581.9550932917,1.263570303003019,1.23111856760857,-0.5690148253014505,0.0248024296015501,-0.6536892652511597,1.786328911781311,0.1313970685005188,0.02654385566711426,0.1695601940155029,2,-0.5122352838516235,0.3118859827518463,0.3320130407810211,0.7280861139297485,0.7942972779273987,0.5388023853302002,-0.2806842923164368,22.63695907592773,8.296709060668945,-12.7447509765625,2,1
1562614318.517587,271,0,309581.9900662917,1.288433779364025,1.223686828397428,-0.5018835984795109,0.1242016330361366,-0.5538269281387329,2.126214504241943,0.03791606426239014,0.06177777051925659,0.1295340061187744,2,-0.4966791272163391,0.3227927982807159,0.3621842861175537,0.7196785807609558,0.8243928551673889,0.4810777008533478,-0.298229306936264,22.21900177001953,5.395889282226562,-13.69879150390625,2,1
1562614318.549526,272,0,309582.0249782917,1.309133070337437,1.213476190581228,-0.4258497295498651,0.320137232542038,-0.5466703176498413,2.26537013053894,-0.04202085733413696,0.1562508344650269,0.1115320920944214,2,-0.4770217537879944,0.3364326059818268,0.393266350030899,0.7103554606437683,0.8531666994094849,0.4130947589874268,-0.3185266852378845,21.7745475769043,1.593179702758789,-14.68719482421875,2,1
1562614318.585797,273,0,309582.0249782917,1.309133070337437,1.213476190581228,-0.4258497295498651,0.320137232542038,-0.5466703176498413,2.26537013053894,-0.04202085733413696,0.1562508344650269,0.1115320920944214,2,-0.4770217537879944,0.3364326059818268,0.393266350030899,0.7103554606437683,0.8531666994094849,0.4130947589874268,-0.3185266852378845,21.7745475769043,1.593179702758789,-14.68719482421875,2,1
1562614318.61607,274,0,309582.0599512917,1.321159038706195,1.202403199044223,-0.3463620212179759,0.6311299204826355,-0.3675709366798401,2.205060005187988,-0.1161039471626282,0.2512002289295197,0.1613232493400574,2,-0.4540760517120361,0.3527739644050598,0.4214551150798798,0.7012425661087036,0.8775056004524231,0.3394781351089478,-0.3387309312820435,21.22175598144531,-2.55885124206543,-15.25146484375,2,1
1562614318.650519,275,0,309582.0948942917,1.321211607016071,1.196513665477871,-0.266930873899579,0.9178311228752136,-0.05090148001909256,2.069376230239868,-0.2185282707214355,0.3417539596557617,0.231112003326416,2,-0.4293303489685059,0.3732920289039612,0.4433378577232361,0.6926615238189697,0.8978068232536316,0.2637722492218018,-0.3526570200920105,21.01565551757812,-4.530490875244141,-15.42111206054688,2,1
1562614318.68134,276,0,309582.1298672917,1.312742699102335,1.199682632045163,-0.1909197659822262,1.038389086723328,0.248591810464859,1.849539160728455,-0.3133801221847534,0.4025968313217163,0.2607641220092773,2,-0.4052501618862152,0.3971652388572693,0.4587932229042053,0.6837695837020874,0.9149910807609558,0.1897620260715485,-0.3560641705989838,20.12593460083008,-8.434120178222656,-15.32830810546875,2,1
1562614318.715632,277,0,309582.1647792917,1.298236483215276,1.212611424486312,-0.1263701900024772,1.047793388366699,0.5250998735427856,1.4077388048172,-0.4374717473983765,0.4721849858760834,0.2653425931930542,2,-0.3851043581962585,0.421669214963913,0.4670857489109039,0.6750708818435669,0.9290667176246643,0.1260341107845306,-0.3477794229984283,19.18610382080078,-11.970703125,-14.02783203125,2,1
1562614318.75086,278,0,309582.1997532917,1.276308592012031,1.231389544672041,-0.0811969591526389,1.002025485038757,0.6126375794410706,0.7630929946899414,-0.4770896434783936,0.5750343799591064,0.2332350015640259,2,-0.3703701198101044,0.4437460005283356,0.4670966267585754,0.6691310405731201,0.9398457407951355,0.08110776543617249,-0.3318309187889099,18.85622024536133,-14.65736961364746,-12.85000610351562,2,1
1562614318.781054,279,0,309582.2346952917,1.250280768550206,1.249220792715405,-0.06547555608710887,0.7398585081100464,0.5127240419387817,-0.1616957038640976,-0.4812337160110474,0.6522064805030823,0.1881322860717773,2,-0.3635675311088562,0.4583954811096191,0.4589425325393677,0.6686283946037292,0.94670569896698,0.06542878597974777,-0.3153844773769379,18.81578826904297,-15.73572731018066,-11.33035278320312,2,1
1562614318.82631,280,0,309582.2696382917,1.227640722777293,1.257859171542803,-0.08417213124834313,0.2817089855670929,0.1523198187351227,-0.9503141045570374,-0.4673036336898804,0.5341969728469849,0.1558460593223572,2,-0.3663581013679504,0.4608681499958038,0.4451372027397156,0.674711287021637,0.9480651021003723,0.0840727761387825,-0.3067645728588104,19.12028884887695,-15.31591606140137,-10.77096557617188,2,1
1562614318.847041,281,0,309582.3045802917,1.203656872205496,1.252162893973695,-0.1245071700372972,0.4592509567737579,-0.09819874912500381,-1.534468650817871,-0.214863121509552,0.9939613938331604,0.08788859844207764,2,-0.3726626634597778,0.453542172908783,0.4278298020362854,0.6873018145561218,0.9423130750656128,0.1241857334971428,-0.3108440637588501,19.85482025146484,-14.12604331970215,-10.63409423828125,2,1
1562614318.879117,282,0,309582.3395542917,1.150559703813961,1.250161718782954,-0.205187031065225,0.5937086939811707,0.2657927274703979,-3.455285787582397,-0.1382772326469421,0.945218563079834,0.1267244815826416,2,-0.3863765895366669,0.4432091414928436,0.3885922729969025,0.7094187140464783,0.9291276335716248,0.203750267624855,-0.3085575699806213,21.19162750244141,-11.20846366882324,-10.01171875,2,1
1562614318.912927,283,0,309582.3744662917,1.116818409167536,1.243476149065429,-0.3514791175646561,-1.053273797035217,-0.1233658939599991,-4.417582511901855,0.07457816600799561,0.1814806163311005,-0.006706118583679199,2,-0.4243808686733246,0.4110660254955292,0.3376894593238831,0.7327288389205933,0.8890177607536316,0.3442868888378143,-0.301851212978363,23.16393280029297,-4.805646896362305,-9.7431640625,2,1
1562614318.945426,284,0,309582.4094392917,1.117463681040517,1.231362720082405,-0.4866977754180417,-1.141201853752136,-0.4240604639053345,-3.020377159118652,0.2951387166976929,-0.08813846111297607,-0.0618891716003418,2,-0.4639231264591217,0.3709847629070282,0.3020282387733459,0.7456035017967224,0.8334508538246155,0.4677096605300903,-0.2942912876605988,23.49156951904297,2.100025177001953,-10.20309448242188,2,1
1562614318.990855,285,0,309582.4443812917,1.101446011587047,1.219126016778118,-0.5674112434686898,-0.04435662552714348,0.1753460466861725,-2.191093921661377,0.3641883730888367,0.2378254532814026,-0.004933297634124756,2,-0.4831888377666473,0.3482601642608643,0.27534419298172,0.7546051740646362,0.7916843295097351,0.5374507904052734,-0.2904868125915527,23.69954681396484,4.38905143737793,-10.6298828125,2,1
1562614319.010759,286,0,309582.4793552917,1.066404408373636,1.220552032468899,-0.6534258412493537,-0.2182116359472275,0.7356570959091187,-2.780489921569824,0.383094847202301,0.09949404001235962,-0.02207499742507935,2,-0.5023822784423828,0.3337506651878357,0.2361151874065399,0.76188725233078,0.7458009123802185,0.6079100966453552,-0.2724450826644897,23.3736572265625,8.255892753601074,-10.07809448242188,2,1
1562614319.044865,287,0,309582.5142672917,1.031008484088283,1.230261571449961,-0.7397883280221993,0.0593341551721096,1.09895932674408,-2.365713119506836,0.4176537990570068,-0.3264849781990051,-0.006968021392822266,2,-0.522118091583252,0.3225645422935486,0.1938726454973221,0.7653483748435974,0.6961973309516907,0.6741315722465515,-0.2466896325349808,22.86613464355469,12.43901443481445,-8.98876953125,2,1
1562614319.076666,288,0,309582.5492402917,0.9819097561253239,1.240496222807167,-0.7899247870043622,0.6749666333198547,1.266525387763977,-1.279672145843506,0.3741495013237,-0.4693284034729004,-0.03435194492340088,2,-0.5290576815605164,0.3255016207695007,0.156884640455246,0.767811119556427,0.6658495664596558,0.7103003263473511,-0.2282933294773102,22.51516723632812,15.22955513000488,-7.531768798828125,2,1
1562614319.111127,289,0,309582.5841522917,0.9385879319053146,1.244124212255555,-0.8085575215057804,0.5758734345436096,0.7993265390396118,-0.6049579381942749,0.2405748963356018,-0.4243365526199341,-0.05263644456863403,2,-0.5274023413658142,0.3332441747188568,0.1334781497716904,0.7700510621070862,0.6540234684944153,0.72329181432724,-0.2215901762247086,22.38197326660156,15.8514404296875,-6.981201171875,2,1
1562614319.151435,290,0,309582.5841522917,0.9385879319053146,1.244124212255555,-0.8085575215057804,0.5758734345436096,0.7993265390396118,-0.6049579381942749,0.2405748963356018,-0.4243365526199341,-0.05263644456863403,2,-0.5274023413658142,0.3332441747188568,0.1334781497716904,0.7700510621070862,0.6540234684944153,0.72329181432724,-0.2215901762247086,22.38197326660156,15.8514404296875,-6.981201171875,2,1
1562614319.176667,291,0,309582.6191252917,0.9061327959969198,1.240098455048175,-0.8203476423136181,0.4798862040042877,0.4648585915565491,-0.5086311101913452,0.2267559170722961,-0.3541501760482788,-0.01200306415557861,2,-0.5250478386878967,0.3370553851127625,0.1183556616306305,0.7724703550338745,0.6450153589248657,0.7313829660415649,-0.2214368730783463,22.18735885620117,16.57943725585938,-6.488922119140625,2,1
