loggingTime,loggingSample,identifierForVendor,motionTimestamp_sinceReboot,motionYaw,motionRoll,motionPitch,motionRotationRateX,motionRotationRateY,motionRotationRateZ,motionUserAccelerationX,motionUserAccelerationY,motionUserAccelerationZ,motionAttitudeReferenceFrame,motionQuaternionX,motionQuaternionY,motionQuaternionZ,motionQuaternionW,motionGravityX,motionGravityY,motionGravityZ,motionMagneticFieldX,motionMagneticFieldY,motionMagneticFieldZ,motionMagneticFieldCalibrationAccuracy,label
1562614335.645492,1,0,309599.07987075,-1.317940052869721,0.3008904454284196,0.3957415205353149,0.2194007337093353,-0.09254243969917297,0.1061127632856369,0.08709338307380676,-0.134745717048645,-0.246645987033844,2,0.2436470240354538,-0.002823019167408347,-0.5702794194221497,0.7844805121421814,0.273464560508728,-0.3854925036430359,-0.8812563419342041,7.981189727783203,1.997760772705078,-22.64657592773438,2,1
1562614335.652248,2,0,309599.11484475,-1.319983716444052,0.2676042544011625,0.4015885502595671,0.1194315105676651,-1.227012991905212,-0.1035607010126114,0.1311358064413071,-0.1447835862636566,-0.3502532243728638,2,0.2363024353981018,-0.01791971176862717,-0.5744026899337769,0.7835186719894409,0.2433846443891525,-0.3908810019493103,-0.8876801133155823,7.232662200927734,1.692424774169922,-23.10250854492188,2,1
1562614335.684156,3,0,309599.14978675,-1.324690726044381,0.2492737952073927,0.4067245723028486,0.1985068321228027,-0.1217951998114586,-0.01690080761909485,-0.05429384112358093,0.02976897358894348,-0.1192302107810974,2,0.2328973412513733,-0.02722926437854767,-0.577825129032135,0.7817515730857849,0.2265748381614685,-0.3956032395362854,-0.8900347948074341,6.226797103881836,1.451169967651367,-23.94735717773438,2,1
1562614335.718382,4,0,309599.18475975,-1.318425441606448,0.2491435999595519,0.4113795528529707,0.03825342282652855,0.01265113241970539,0.3059493601322174,-0.04397104680538177,-0.01785513758659363,-0.03769731521606445,2,0.2346955686807632,-0.02798201330006123,-0.5748773813247681,0.7833588719367981,0.226002424955368,-0.3998741507530212,-0.8882700204849243,6.245861053466797,1.122013092041016,-23.95040893554688,2,1
1562614335.750631,5,0,309599.21967175,-1.305294043096883,0.2303145891356976,0.4132941588922199,-0.09193981438875198,-0.5904178023338318,0.3577054440975189,0.05127698183059692,0.01244825124740601,0.03422641754150391,2,0.2302260994911194,-0.03443268314003944,-0.5717039108276367,0.7867433428764343,0.2090629488229752,-0.401628315448761,-0.8916206955909729,6.188066482543945,1.029642105102539,-24.08621215820312,2,1
1562614335.787499,6,0,309599.25464575,-1.288925780465895,0.2029002738326059,0.4052409302254857,-0.4461219012737274,-0.5030151009559631,0.3667516112327576,0.03201384842395782,0.02424031496047974,-0.02929085493087769,2,0.2196450531482697,-0.04096908494830132,-0.5691605806350708,0.7912862300872803,0.1851900666952133,-0.3942402005195618,-0.9001551866531372,5.441747665405273,0.9686641693115234,-24.58914184570312,2,1
1562614335.8159,7,0,309599.28955775,-1.27600504830974,0.1897583280266695,0.3956640198751511,-0.1743820756673813,-0.09698847681283951,0.2222669869661331,-0.01353101432323456,0.05913731455802917,0.03190743923187256,2,0.2124951928853989,-0.04191704466938972,-0.5663913488388062,0.7951664328575134,0.1740488260984421,-0.3854209780693054,-0.9061775207519531,4.666954040527344,0.9547710418701172,-24.8917236328125,2,1
1562614335.872409,8,0,309599.32453075,-1.273577016499184,0.1938345734017883,0.4052421694824387,0.4680928587913513,0.1699740290641785,0.0895373597741127,-0.05372034013271332,0.08823674917221069,0.1745905876159668,2,0.2173989117145538,-0.04288869351148605,-0.5640623569488525,0.7954444885253906,0.1770219355821609,-0.3942413330078125,-0.9017965197563171,4.906028747558594,0.6963386535644531,-24.96978759765625,2,1
1562614335.881962,9,0,309599.32453075,-1.273577016499184,0.1938345734017883,0.4052421694824387,0.4680928587913513,0.1699740290641785,0.0895373597741127,-0.05372034013271332,0.08823674917221069,0.1745905876159668,2,0.2173989117145538,-0.04288869351148605,-0.5640623569488525,0.7954444885253906,0.1770219355821609,-0.3942413330078125,-0.9017965197563171,4.906028747558594,0.6963386535644531,-24.96978759765625,2,1
1562614335.9158,10,0,309599.35947275,-1.273785393519535,0.1984377496588021,0.4290845644765802,0.7231813073158264,0.07901135832071304,0.1686111241579056,-0.08149334788322449,0.113178014755249,0.3337290287017822,2,0.2278769910335541,-0.04817888140678406,-0.5612537860870361,0.7941946387290955,0.1792668253183365,-0.4160385429859161,-0.8915017247200012,4.926336288452148,-0.4197177886962891,-24.57119750976562,2,1
1562614335.947711,11,0,309599.39444675,-1.271414117127264,0.1966073120072386,0.4478223102044122,0.3381855487823486,-0.08361228555440903,0.1215552762150764,-0.08334258198738098,0.08778515458106995,0.3351040482521057,2,0.2346250116825104,-0.05420037731528282,-0.5585940480232239,0.7937167286872864,0.1760807782411575,-0.4330036044120789,-0.884026825428009,4.864532470703125,-0.9142646789550781,-24.62847900390625,2,1
1562614335.981662,12,0,309599.42935875,-1.272527699314916,0.1927456804356608,0.4493541079001961,-0.07847105711698532,-0.09428678452968597,-0.09275522083044052,-0.07020233571529388,0.05297151207923889,0.2711452841758728,2,0.2341030389070511,-0.05631764605641365,-0.5593292713165283,0.7932054996490479,0.1725384294986725,-0.4343838393688202,-0.8840481638908386,4.706079483032227,-1.327384948730469,-24.76446533203125,2,1
1562614336.030855,13,0,309599.46433175,-1.275602111624474,0.1948119467658652,0.4432225788740348,-0.1497424095869064,0.04991638287901878,-0.0885433554649353,-0.06539991497993469,0.01936420798301697,0.1821663379669189,2,0.2322438806295395,-0.05403407290577888,-0.5609415173530579,0.7927721738815308,0.1748770475387573,-0.4288528859615326,-0.886286199092865,4.817676544189453,-0.8140792846679688,-24.93402099609375,2,1
1562614336.047542,14,0,309599.49927375,-1.278754594948968,0.1971169793015579,0.4450346121927299,0.2056735903024673,0.0134580060839653,-0.08112840354442596,-0.02459582686424255,-0.02657642960548401,0.1119513511657715,2,0.2335002273321152,-0.05402790009975433,-0.5617341995239258,0.7918418049812317,0.1767670214176178,-0.4304891228675842,-0.88511723279953,4.782562255859375,-0.8519077301025391,-24.80487060546875,2,1
1562614336.079586,15,0,309599.53421675,-1.284732898656261,0.198319475570315,0.4592543666960476,0.5305278301239014,-0.1561858952045441,-0.04412005469202995,-0.002249822020530701,-0.03079879283905029,0.03951561450958252,2,0.23910291492939,-0.05850755423307419,-0.5624589323997498,0.7893330454826355,0.1766072511672974,-0.4432798624038696,-0.8788133263587952,4.410127639770508,-1.015384674072266,-24.59677124023438,2,1
1562614336.11344,16,0,309599.56915975,-1.290132957782626,0.1783632788861922,0.4704282314211113,0.1141937300562859,-0.8707226514816284,-0.1236614808440208,-0.01484048366546631,-0.1571629643440247,-0.1863994598388672,2,0.2375568300485611,-0.07035812735557556,-0.565786600112915,0.7864490151405334,0.1581467837095261,-0.4532680511474609,-0.8772329688072205,4.066980361938477,-1.539592742919922,-25.0723876953125,2,1
1562614336.145542,17,0,309599.60413275,-1.29318437008517,0.1589121057719514,0.4630100527440948,-0.2442635744810104,-0.218444287776947,-0.06740991026163101,0.005279123783111572,-0.1060181558132172,-0.2612329125404358,2,0.2290937602519989,-0.07613576948642731,-0.5700120329856873,0.7853698134422302,0.1415829360485077,-0.4466432631015778,-0.883438766002655,3.207389831542969,-1.301387786865234,-25.5814208984375,2,1
1562614336.191171,18,0,309599.63904475,-1.296586946044664,0.1668934520970307,0.454303882518346,-0.3475678563117981,0.036631740629673,-0.1957478821277618,-0.05851444602012634,-0.1232087910175323,-0.1760399341583252,2,0.2279246300458908,-0.0707780048251152,-0.5713061690330505,0.7852707505226135,0.149269700050354,-0.4388369023799896,-0.8860816955566406,3.152191162109375,-0.9215412139892578,-25.50601196289062,2,1
1562614336.211404,19,0,309599.6740324167,-1.309811550030574,0.1497664804782462,0.4215247179251298,-1.165318012237549,-0.8827950954437256,-0.6502113938331604,0.08310332894325256,-0.2424633800983429,-0.3580808639526367,2,0.2100162357091904,-0.06904485821723938,-0.5815241932868958,0.7829148769378662,0.1361465454101562,-0.4091521799564362,-0.9022519588470459,2.62913703918457,0.09612083435058594,-25.9818115234375,2,1
1562614336.245273,20,0,309599.7089754167,-1.329032526839067,0.1511904591816057,0.3829707559919013,-0.701508104801178,0.4574037194252014,-0.5285465717315674,0.03373852372169495,0.04615792632102966,-0.2546404004096985,2,0.1951151341199875,-0.05866300687193871,-0.592363178730011,0.7794834971427917,0.1397043466567993,-0.373677670955658,-0.9169774651527405,2.174863815307617,0.9183063507080078,-25.99752807617188,2,1
1562614336.277197,21,0,309599.7439484167,-1.335657585409596,0.177983265689578,0.3908603513442729,0.7368685603141785,0.4294618368148804,0.003190612187609076,-0.001572445034980774,0.01850658655166626,-0.02810651063919067,2,0.2058578580617905,-0.05132884532213211,-0.5915395021438599,0.7778618335723877,0.1636926084756851,-0.3809840083122253,-0.9099757671356201,3.019964218139648,1.563228607177734,-25.56887817382812,2,1
1562614336.311257,22,0,309599.7788604167,-1.34737759346234,0.1692408499189626,0.4219456586415808,0.8269608020782471,-0.6950589418411255,-0.2499538064002991,-0.03031358122825623,0.04312300682067871,0.008250594139099121,2,0.2146349549293518,-0.06558901816606522,-0.5940250754356384,0.7725051045417786,0.153661385178566,-0.4095362424850464,-0.8992598056793213,3.100675582885742,0.5069541931152344,-25.552001953125,2,1
1562614336.350805,23,0,309599.8138334167,-1.357712075017751,0.1531220173786429,0.4321195977059201,0.09004870802164078,-0.3877385556697845,-0.1487246006727219,-0.08333243429660797,0.1062318980693817,0.01332765817642212,2,0.2132728099822998,-0.07607272267341614,-0.5987457036972046,0.7682650089263916,0.1385043412446976,-0.4187965095043182,-0.8974552750587463,2.234308242797852,0.2347164154052734,-26.22076416015625,2,1
1562614336.377077,24,0,309599.8487454167,-1.358891886213428,0.1526914204654164,0.4351557904258093,0.1962520182132721,0.1542700082063675,0.03162028640508652,-0.1453281939029694,0.07509726285934448,0.2179216146469116,2,0.2142331749200821,-0.07731207460165024,-0.5989521145820618,0.7677130699157715,0.13792385160923,-0.4215516746044159,-0.8962540030479431,2.491121292114258,0.3165988922119141,-26.21792602539062,2,1
1562614336.409814,25,0,309599.8837184167,-1.363600795665865,0.1630470574310539,0.4512321799491224,0.5766266584396362,0.2049266397953033,-0.1263312101364136,-0.1218363493680954,0.07320228219032288,0.3843557238578796,2,0.2231359481811523,-0.07888449728488922,-0.5980361700057983,0.7657285928726196,0.1460785120725632,-0.4360747039318085,-0.8879751563072205,2.204339981079102,-0.2710685729980469,-26.04470825195312,2,1
1562614336.442933,26,0,309599.9186614167,-1.376367696025226,0.1691586490613082,0.4669789507709537,0.3966633081436157,-0.06274566799402237,-0.3005361557006836,-0.05334727466106415,0.0600818395614624,0.4158591032028198,2,0.2302737534046173,-0.08294764906167984,-0.6005947589874268,0.7611699104309082,0.1503279060125351,-0.4501907527446747,-0.8801873922348022,2.234169006347656,-0.6347808837890625,-25.741455078125,2,1
1562614336.474996,27,0,309599.9186614167,-1.376367696025226,0.1691586490613082,0.4669789507709537,0.3966633081436157,-0.06274566799402237,-0.3005361557006836,-0.05334727466106415,0.0600818395614624,0.4158591032028198,2,0.2302737534046173,-0.08294764906167984,-0.6005947589874268,0.7611699104309082,0.1503279060125351,-0.4501907527446747,-0.8801873922348022,2.234169006347656,-0.6347808837890625,-25.741455078125,2,1
1562614336.511907,28,0,309599.9536344167,-1.385337325236387,0.1702509125115851,0.4668489256611458,-0.1259241551160812,-0.1019624248147011,-0.1419778913259506,-0.009533986449241638,0.02328372001647949,0.3425250649452209,2,0.2301815897226334,-0.08352409303188324,-0.6038904786109924,0.7585225105285645,0.1512991338968277,-0.4500746428966522,-0.8800803422927856,2.006992340087891,-0.8217048645019531,-25.55816650390625,2,1
1562614336.540825,29,0,309599.9885464167,-1.384854900053416,0.1615028593622937,0.4614053973940202,-0.1464120298624039,-0.3231060802936554,0.02613368257880211,0.00293654203414917,-0.05575704574584961,0.192747175693512,2,0.2255589962005615,-0.08506181091070175,-0.6052713990211487,0.7586396932601929,0.1439862847328186,-0.4452069699764252,-0.8837752342224121,1.901266098022461,-0.9419536590576172,-25.90676879882812,2,1
1562614336.591659,30,0,309600.0235194167,-1.383684115829395,0.1463623443210178,0.4570664731824925,-0.07778973132371902,-0.4453268945217133,0.01290664449334145,0.02040198445320129,-0.1438292860984802,0.01287555694580078,2,0.219424232840538,-0.08930116891860962,-0.6069508790969849,0.7586098313331604,0.1308699697256088,-0.441317617893219,-0.8877565860748291,1.500339508056641,-0.7797145843505859,-26.17410278320312,2,1
1562614336.606638,31,0,309600.0584324167,-1.383281606244455,0.1432652246003492,0.4594541513743984,0.114085428416729,0.2315641939640045,0.02689514122903347,0.05548378825187683,-0.1373850405216217,-0.09422940015792847,2,0.2193830609321594,-0.09118641167879105,-0.606900691986084,0.7584376335144043,0.1279690563678741,-0.4434589445590973,-0.8871122002601624,0.8216838836669922,-1.030550003051758,-26.20413208007812,2,1
1562614336.640761,32,0,309600.0934054167,-1.375414468250625,0.1583357408941804,0.4669904111146962,0.2192974090576172,0.4455060362815857,0.3573941588401794,0.029964879155159,-0.1481751203536987,-0.004262447357177734,2,0.2270660102367401,-0.08696085959672928,-0.6014682650566101,0.7609958648681641,0.1407922953367233,-0.4502009749412537,-0.8817576766014099,1.181039810180664,-1.336942672729492,-25.796875,2,1
1562614336.672727,33,0,309600.1283474167,-1.360457223304541,0.1468046106334071,0.4751635010941312,0.08936035633087158,-0.4537173509597778,0.3827476799488068,0.05943757295608521,-0.247428834438324,-0.07490962743759155,2,0.2273083031177521,-0.09221921861171722,-0.5962384939193726,0.7644123435020447,0.1300729066133499,-0.4574838280677795,-0.8796530961990356,0.9380626678466797,-1.866935729980469,-25.50738525390625,2,1
1562614336.706492,34,0,309600.1633204167,-1.348836468211772,0.128638168998778,0.475309794679101,-0.05668027698993683,-0.05127358436584473,0.2262296676635742,0.02556641399860382,-0.2232356071472168,-0.1985822319984436,2,0.222510352730751,-0.09791290760040283,-0.5938177108764648,0.7669959664344788,0.1140635684132576,-0.4576139152050018,-0.8818044066429138,0.1406078338623047,-2.350187301635742,-25.94815063476562,2,1
1562614336.747365,35,0,309600.1982334167,-1.344077758853031,0.1440467447132336,0.4719527168976407,-0.1843822449445724,0.538898229598999,0.06286615133285522,-0.005576282739639282,-0.2117427587509155,-0.2448274493217468,2,0.2260409742593765,-0.09042493999004364,-0.5905938744544983,0.7693684101104736,0.1278566420078278,-0.4546264111995697,-0.8814576268196106,0.5960178375244141,-2.396312713623047,-25.78387451171875,2,1
1562614336.772543,36,0,309600.2332064167,-1.344694355852402,0.1451793604712047,0.4651365303664623,-0.09356240928173065,-0.06892243772745132,-0.1014126762747765,0.07920746505260468,-0.2069905400276184,-0.3283070921897888,2,0.2237966954708099,-0.08795493096113205,-0.5913825035095215,0.7697048783302307,0.1293002218008041,-0.448544830083847,-0.8843579292297363,0.6845798492431641,-2.156562805175781,-25.49307250976562,2,1
1562614336.804485,37,0,309600.2681484167,-1.34554452772116,0.1700710577065366,0.4826230009501191,0.7920975685119629,1.113274335861206,0.1918183416128159,0.02893880009651184,0.1246702075004578,0.01563680171966553,2,0.2376204431056976,-0.08388032764196396,-0.5870401859283447,0.7693402171134949,0.1499204784631729,-0.464104175567627,-0.8730012178421021,0.9063777923583984,-2.632678985595703,-24.90646362304688,2,1
1562614336.83839,38,0,309600.3030914167,-1.339037827607873,0.1894229930078748,0.5149008281518147,0.7954868674278259,0.1401398628950119,0.3424558937549591,0.1035423874855042,0.03622448444366455,0.1574583649635315,2,0.2555112838745117,-0.08559834212064743,-0.5785843729972839,0.7698227763175964,0.1638785600662231,-0.4924485385417938,-0.8547738194465637,1.526288986206055,-3.99266242980957,-23.97097778320312,2,1
1562614336.870691,39,0,309600.3380344167,-1.329260509173792,0.1580517773784533,0.5152329265799078,-0.5543517470359802,-1.02480947971344,0.1881711930036545,0.1058327555656433,-0.007447093725204468,-0.1141064763069153,2,0.2470032125711441,-0.09655806422233582,-0.5787215828895569,0.7711986303329468,0.1369612812995911,-0.4927375614643097,-0.8593319058418274,1.110406875610352,-4.31843376159668,-24.10870361328125,2,1
1562614336.905561,40,0,309600.3730074167,-1.319950359913683,0.1215769366556402,0.4851498516170324,-0.8122656345367432,-0.8581475019454956,0.08832534402608871,0.07208128273487091,0.008483320474624634,-0.1694589853286743,2,0.2255674451589584,-0.1004071086645126,-0.5825198888778687,0.7744084000587463,0.1072828322649002,-0.4663409292697906,-0.8780754804611206,-0.3776321411132812,-3.932844161987305,-25.23550415039062,2,1
1562614336.936322,41,0,309600.4079194167,-1.314173701369528,0.09186381711821723,0.4885294820551754,0.6266042590141296,-0.7426825165748596,0.1695274710655212,-0.07111845910549164,0.1352344453334808,0.07520496845245361,2,0.2184966504573822,-0.1122892275452614,-0.5832638740539551,0.7742438912391663,0.08100391179323196,-0.4693278968334198,-0.8793007135391235,-1.226259231567383,-3.733713150024414,-25.89154052734375,2,1
1562614336.97043,42,0,309600.4428924167,-1.31281292390675,0.07312878437173496,0.5329961027700469,1.496139049530029,-0.3222686350345612,0.1112214773893356,-0.1032290458679199,0.1595584154129028,0.1801496744155884,2,0.2300094217061996,-0.132673904299736,-0.5807106494903564,0.7695898413658142,0.06292886286973953,-0.5081161260604858,-0.8589866161346436,-2.510869979858398,-4.95094108581543,-26.02487182617188,2,1
1562614337.002297,43,0,309600.4778354167,-1.321306664051479,0.07901270559551857,0.5880310659785394,1.536573529243469,0.199850007891655,-0.2104987353086472,-0.1168069392442703,0.1070921421051025,0.1922116875648499,2,0.2518393695354462,-0.1478431224822998,-0.5778047442436218,0.7621424794197083,0.06567291915416718,-0.554723858833313,-0.8294386863708496,-2.50478458404541,-6.550491333007812,-25.50408935546875,2,1
1562614337.036221,44,0,309600.4778354167,-1.321306664051479,0.07901270559551857,0.5880310659785394,1.536573529243469,0.199850007891655,-0.2104987353086472,-0.1168069392442703,0.1070921421051025,0.1922116875648499,2,0.2518393695354462,-0.1478431224822998,-0.5778047442436218,0.7621424794197083,0.06567291915416718,-0.554723858833313,-0.8294386863708496,-2.50478458404541,-6.550491333007812,-25.50408935546875,2,1
1562614337.071145,45,0,309600.5128084167,-1.332912718137082,0.09005323452145925,0.6257596773110361,0.8113315105438232,0.04191198945045471,-0.1107192859053612,-0.1582814455032349,0.02297025918960571,0.1258779764175415,2,0.268166184425354,-0.1564283668994904,-0.5767053365707397,0.7556639313697815,0.07289119064807892,-0.5857131481170654,-0.8072341084480286,-2.395963668823242,-7.349674224853516,-25.291259765625,2,1
1562614337.102002,46,0,309600.5477204167,-1.332668367332009,0.08702230166370184,0.6397857339906062,0.1937165260314941,-0.09015587717294693,0.1281133890151978,-0.07039664685726166,-0.1092584133148193,0.01950401067733765,2,0.2724867761135101,-0.1617310643196106,-0.5754434466362,0.7539620995521545,0.06972327083349228,-0.5970235466957092,-0.7991880178451538,-2.485663414001465,-8.070426940917969,-25.03030395507812,2,1
1562614337.150836,47,0,309600.5826934167,-1.324646169719752,0.08233693024290738,0.6479302132111907,0.3229048550128937,0.03638166934251785,0.2441682368516922,-0.08204203844070435,-0.131858229637146,0.02784305810928345,2,0.2748026251792908,-0.1648233979940414,-0.572135865688324,0.7549684643745422,0.06557594239711761,-0.603537380695343,-0.7946335077285767,-2.827939033508301,-8.718082427978516,-24.83966064453125,2,1
1562614337.169084,48,0,309600.6176054167,-1.316416998516187,0.08049141800971274,0.6731643915741889,0.8902574777603149,0.06369877606630325,0.1652220189571381,-0.09342965483665466,-0.09171396493911743,0.06056511402130127,2,0.2842866778373718,-0.1718151122331619,-0.5663978457450867,0.7542241811752319,0.06286449730396271,-0.6234632134437561,-0.7793213129043579,-3.121988296508789,-9.616924285888672,-24.64999389648438,2,1
1562614337.200028,49,0,309600.6525719167,-1.319928191462195,0.08280949913185856,0.704290881996221,0.7869104146957397,0.003388481214642525,-0.1072595417499542,-0.07422110438346863,-0.05860388278961182,0.0249098539352417,2,0.296072393655777,-0.1805862933397293,-0.5636940598487854,0.7496523857116699,0.06303460896015167,-0.6474936008453369,-0.7594594359397888,-3.493206977844238,-10.56806945800781,-24.227783203125,2,1
1562614337.233949,50,0,309600.6875149167,-1.332305324894327,0.1006360157420308,0.718413107635455,0.2393049448728561,0.6334858536720276,-0.3313567936420441,-0.03530925512313843,0.02313870191574097,0.03413015604019165,2,0.3051239848136902,-0.1799397766590118,-0.5638917088508606,0.7460208535194397,0.0756361186504364,-0.6581907868385315,-0.7490420341491699,-3.63315486907959,-10.77879524230957,-24.059814453125,2,1
1562614337.265752,51,0,309600.7224879167,-1.349009066252489,0.1503084431557399,0.7323621574050567,0.584022581577301,1.019170761108398,-0.263319194316864,-0.03633949160575867,0.08925551176071167,0.2054202556610107,2,0.3226370513439178,-0.1682226061820984,-0.5604636669158936,0.7439670562744141,0.111348532140255,-0.6686279773712158,-0.7352129817008972,-2.741022109985352,-10.77536773681641,-23.0682373046875,2,1
1562614337.310747,52,0,309600.7573999167,-1.36415240690396,0.1454682212036701,0.7373637546913442,-0.2849583327770233,-1.328156113624573,-0.4020299315452576,0.04659456014633179,-0.07274401187896729,-0.2356152534484863,2,0.3217489421367645,-0.1739684194326401,-0.5661602020263672,0.7386983036994934,0.1073025390505791,-0.6723387837409973,-0.7324252128601074,-2.633380889892578,-11.10724449157715,-22.94027709960938,2,1
1562614337.33238,53,0,309600.7923729167,-1.393341180545578,0.1205794061212199,0.6915419651763991,-1.581882476806641,-0.6765350699424744,-0.9911168217658997,0.02614927291870117,0.03583031892776489,-0.2737727761268616,2,0.2958494126796722,-0.1736022382974625,-0.5869306921958923,0.7333810329437256,0.09265302121639252,-0.6377256512641907,-0.7646707892417908,-3.838339805603027,-9.31915283203125,-24.25314331054688,2,1
1562614337.365668,54,0,309600.8272849167,-1.421672560323565,0.1509927842079393,0.640804880063454,-1.063781499862671,0.6502645015716553,-0.6276496648788452,-0.05455733835697174,0.2193026542663574,0.01486992835998535,2,0.2847010493278503,-0.1506591737270355,-0.5994970202445984,0.7327008247375488,0.1205786615610123,-0.5978408455848694,-0.7924942374229431,-3.798681259155273,-8.271446228027344,-24.69381713867188,2,1
1562614337.397559,55,0,309600.8622589167,-1.434053584535273,0.1548590537183426,0.6219885861688844,-0.2242883592844009,-0.6252000331878662,-0.2424710839986801,0.04970565438270569,0.1358460187911987,0.007854700088500977,2,0.2783577144145966,-0.1449795365333557,-0.6059068441390991,0.7310095429420471,0.1253548413515091,-0.5826524496078491,-0.8029958605766296,-3.182370185852051,-6.865982055664062,-24.63153076171875,2,1
1562614337.431702,56,0,309600.8972009167,-1.437143116070102,0.1295654383363843,0.6247102423863167,0.2518172264099121,-0.6009235382080078,0.04344072937965393,-0.02854052186012268,0.1980839371681213,0.1053841114044189,2,0.27138951420784,-0.1555018424987793,-0.6101669669151306,0.7279170155525208,0.1048009619116783,-0.5848622918128967,-0.8043338060379028,-4.323863983154297,-6.34065055847168,-25.0013427734375,2,1
1562614337.4636,57,0,309600.9321739167,-1.429715981170397,0.1232448121601578,0.6385379985914207,0.4029335081577301,0.1915463656187057,0.3009870648384094,-0.07277421653270721,0.21342533826828,0.260219931602478,2,0.2749109268188477,-0.1611994504928589,-0.6066054701805115,0.7283326387405396,0.09871130436658859,-0.5960221290588379,-0.7968774437904358,-4.662527084350586,-6.607828140258789,-24.93069458007812,2,1
1562614337.497276,58,0,309600.9670859167,-1.420308308440619,0.128073454935387,0.6530570182820105,0.3222680985927582,0.2966040372848511,0.16756272315979,-0.01135694980621338,0.2040090560913086,0.4183343648910522,2,0.2822348773479462,-0.1627295166254044,-0.600672721862793,0.7301061749458313,0.1014419347047806,-0.607617199420929,-0.7877251505851746,-4.755818367004395,-7.37469482421875,-24.69570922851562,2,1
1562614337.536797,59,0,309601.0020599167,-1.41831946342903,0.1501950897755032,0.6473655550462527,-0.4900864958763123,1.127509593963623,0.06217772513628006,-0.04559940099716187,0.2138068079948425,0.4256671667098999,2,0.2870187163352966,-0.1525540202856064,-0.5975300073623657,0.7330111861228943,0.1193569824099541,-0.6030870676040649,-0.7886950373649597,-4.598420143127441,-7.434919357299805,-24.47506713867188,2,1
1562614337.563022,60,0,309601.0370019167,-1.400716455621402,0.2081557645977086,0.6107431918554383,-1.472828030586243,2.108893156051636,0.1849893480539322,-0.01030524075031281,0.1404789090156555,0.318851113319397,2,0.2924932241439819,-0.1169558763504028,-0.5874661803245544,0.7454210519790649,0.1692970097064972,-0.5734764337539673,-0.8015380501747131,-3.06244945526123,-6.889169692993164,-23.8277587890625,2,1
1562614337.595523,61,0,309601.0370019167,-1.400716455621402,0.2081557645977086,0.6107431918554383,-1.472828030586243,2.108893156051636,0.1849893480539322,-0.01030524075031281,0.1404789090156555,0.318851113319397,2,0.2924932241439819,-0.1169558763504028,-0.5874661803245544,0.7454210519790649,0.1692970097064972,-0.5734764337539673,-0.8015380501747131,-3.06244945526123,-6.889169692993164,-23.8277587890625,2,1
1562614337.62906,62,0,309601.0719749167,-1.380544477794336,0.263150539203183,0.5501972811032551,-1.838385343551636,1.907484769821167,-0.01153810508549213,-0.138138622045517,-0.1699091792106628,0.192166805267334,2,0.2880426347255707,-0.07411431521177292,-0.5800278782844543,0.7583576440811157,0.2217351943254471,-0.5228554010391235,-0.8230770230293274,-1.19133186340332,-5.242835998535156,-22.91204833984375,2,1
1562614337.661247,63,0,309601.1068869167,-1.372314348931116,0.3424300868549525,0.4953428964994306,-1.321433067321777,2.781458854675293,-0.356284886598587,0.09564042091369629,-0.278666079044342,-0.1295008063316345,2,0.2915471494197845,-0.0252484604716301,-0.5729394555091858,0.7655737400054932,0.2954186201095581,-0.4753333628177643,-0.8287255764007568,0.9753017425537109,-3.399166107177734,-21.5992431640625,2,1
1562614337.706696,64,0,309601.1418609167,-1.344663474800152,0.5108787266587025,0.472056772671383,-0.8559883236885071,6.146584033966064,1.086337208747864,0.1062650084495544,-0.02973452210426331,-0.2505273222923279,2,0.3300189077854156,0.05128684267401695,-0.5396690368652344,0.7727965116500854,0.4354705512523651,-0.454719066619873,-0.7769143581390381,5.121452331542969,-2.786462783813477,-17.42129516601562,2,1
1562614337.72706,65,0,309601.1767729167,-1.251700812870624,0.6967393937228334,0.4720018347187928,-1.624582529067993,6.730057239532471,1.827319383621216,0.1109545826911926,-0.367475688457489,-0.06273138523101807,2,0.3725414276123047,0.1402573138475418,-0.4706478118896484,0.7874208092689514,0.5715546607971191,-0.4546701610088348,-0.6830815672874451,7.313371658325195,-3.409618377685547,-14.11019897460938,2,1
1562614337.760998,66,0,309601.2117459167,-1.194880871482297,0.8187376420939129,0.4433926461995903,-0.8811338543891907,2.23774790763855,-0.2570511698722839,0.215741753578186,-0.3514072597026825,-0.0848459005355835,2,0.3851979374885559,0.2075577974319458,-0.4310575723648071,0.7891335487365723,0.6596665978431702,-0.4290065169334412,-0.6170846223831177,10.37869453430176,-3.871541976928711,-8.158050537109375,2,1
1562614337.793029,67,0,309601.2466889167,-1.168821092475417,0.9234618248581595,0.4180421299128394,-1.035485863685608,3.908452272415161,0.0214670468121767,0.3722048997879028,-0.3219826817512512,-0.2415617704391479,2,0.3953772485256195,0.2609825432300568,-0.4060837030410767,0.7814479470252991,0.7290010452270508,-0.4059719741344452,-0.5511298775672913,11.34708023071289,-3.202461242675781,-4.93408203125,2,1
1562614337.82694,68,0,309601.2816619167,-1.140346602703558,1.065559943899828,0.4055812804425205,-0.6047896146774292,4.486371994018555,0.3325033485889435,0.4414521455764771,-0.3355687856674194,-0.3657845258712769,2,0.4145953059196472,0.3251720368862152,-0.3693199753761292,0.7654910683631897,0.8040692210197449,-0.3945529460906982,-0.4447477459907532,12.00905799865723,-2.995548248291016,0.19830322265625,2,1
1562614337.871602,69,0,309601.3165739167,-1.116978161460343,1.215708925746702,0.4508048665284569,0.101099506020546,4.679396152496338,2.102328300476074,0.2512607574462891,-0.1548430919647217,-0.03057152032852173,2,0.4505659639835358,0.3748612403869629,-0.3157355189323425,0.7461772561073303,0.8439452052116394,-0.4356901347637177,-0.3129387199878693,12.18864440917969,-3.397531509399414,2.848358154296875,2,1
1562614337.892881,70,0,309601.3515469167,-1.055742837771869,1.361650555528274,0.5135986581974599,-1.570493102073669,5.206171035766602,2.06708550453186,-0.1272951364517212,-0.1448100805282593,0.2941864728927612,2,0.4771431982517242,0.4265159070491791,-0.2404570281505585,0.7297937870025635,0.8520022034645081,-0.4913147985935211,-0.180837094783783,11.12974739074707,-5.845798492431641,8.944427490234375,2,1
1562614337.92484,71,0,309601.3864589167,-0.978099358354011,1.484028898273928,0.5565506839866857,-1.521988868713379,4.233231544494629,1.029695987701416,-0.008570969104766846,0.2402050495147705,0.1567599773406982,2,0.4840042591094971,0.4784869253635406,-0.169089287519455,0.7128807306289673,0.845888078212738,-0.5282605886459351,-0.07358027994632721,8.408554077148438,-8.297048568725586,13.77865600585938,2,1
1562614337.958621,72,0,309601.4214319167,-0.9592811694752642,1.598675142104964,0.573167096849746,-0.0570979118347168,3.440305709838867,0.5346640944480896,-0.3502154946327209,0.2612748742103577,0.08871769905090332,2,0.4921650588512421,0.5191182494163513,-0.1288177818059921,0.6868011355400085,0.8398612141609192,-0.5422956943511963,0.02342040464282036,6.313278198242188,-9.127731323242188,17.29959106445312,2,1
1562614337.99124,73,0,309601.4563749167,-0.9606530778801609,1.716959037654919,0.622009215052025,-0.0763234943151474,3.153461694717407,1.762729644775391,-0.508412778377533,0.2655625939369202,-0.07133936882019043,2,0.5103155374526978,0.5465900897979736,-0.0821152850985527,0.6588433980941772,0.8040439486503601,-0.5826692581176758,0.1183653473854065,3.249174118041992,-10.33252906799316,20.4014892578125,2,1
1562614338.027611,74,0,309601.4913479167,-0.9793004447579551,1.850020447361441,0.6883013222013881,-0.0104106068611145,3.45837140083313,1.932753682136536,-0.02714908123016357,0.3022825717926025,-0.3036096096038818,2,0.5327783823013306,0.5679591298103333,-0.02865907549858093,0.6266963481903076,0.7424136996269226,-0.6352261900901794,0.2128607481718063,1.5606689453125,-11.02351379394531,22.04205322265625,2,1
1562614338.056434,75,0,309601.5262599167,-0.990821929605727,1.945600985406576,0.7263015864413878,-0.1460444629192352,2.180294275283813,0.5916699171066284,-0.1408989429473877,0.3167468309402466,-0.3711974620819092,2,0.5432139039039612,0.5846108794212341,0.00809688214212656,0.6025637984275818,0.6957340240478516,-0.6641091108322144,0.2737024426460266,-1.797889709472656,-12.33443069458008,24.08657836914062,2,1
1562614338.106178,76,0,309601.5612329167,-0.9867115189601029,2.023362139201413,0.7199775389021345,0.1814143061637878,2.398293972015381,-0.7113696932792664,-0.1099450588226318,0.4907315373420715,-0.2816257476806641,2,0.5403060913085938,0.6102829575538635,0.02790737338364124,0.5786581039428711,0.6761333346366882,-0.6593677997589111,0.3287519216537476,-3.84982967376709,-12.32573890686035,25.4915771484375,2,1
1562614338.122391,77,0,309601.5961759167,-0.9616341360162922,2.110576788993507,0.6679024401153392,0.1726641207933426,3.153627872467041,-1.985928654670715,-0.179984450340271,0.4841809272766113,-0.4505194425582886,2,0.5234332680702209,0.6540440320968628,0.03743909299373627,0.5448324680328369,0.6734951138496399,-0.6193405389785767,0.4035119712352753,-6.037186622619629,-11.27278518676758,26.95721435546875,2,1
1562614338.156289,78,0,309601.6311179167,-0.8919652092012931,2.146251281754075,0.5992936319265377,-0.5896719694137573,1.27133846282959,-2.756956577301025,-0.1341568827629089,0.5063824057579041,-0.5589483976364136,2,0.4892634153366089,0.696642279624939,0.03726598992943764,0.5233757495880127,0.692745566368103,-0.564059317111969,0.4493783116340637,-6.462578773498535,-9.938985824584961,27.70895385742188,2,1
1562614338.188767,79,0,309601.6311179167,-0.8919652092012931,2.146251281754075,0.5992936319265377,-0.5896719694137573,1.27133846282959,-2.756956577301025,-0.1341568827629089,0.5063824057579041,-0.5589483976364136,2,0.4892634153366089,0.696642279624939,0.03726598992943764,0.5233757495880127,0.692745566368103,-0.564059317111969,0.4493783116340637,-6.462578773498535,-9.938985824584961,27.70895385742188,2,1
1562614338.222213,80,0,309601.666057875,-0.8143617888916044,2.042602341782316,0.5206208612456275,-0.5521366596221924,-3.004207849502563,-2.864854335784912,-0.1201381683349609,0.4883390367031097,-0.4936552047729492,2,0.4497740864753723,0.7034509181976318,0.001688304240815341,0.5503246784210205,0.7727341055870056,-0.4974188506603241,0.3942798376083374,-5.234940528869629,-9.363515853881836,27.08511352539062,2,1
1562614338.261746,81,0,309601.701030875,-0.7611493341523414,1.893580349834286,0.4605015144478422,-0.3350155353546143,-3.769438505172729,-1.858642935752869,-0.1042596101760864,0.7333813905715942,-0.229789137840271,2,0.4173028767108917,0.6840617656707764,-0.03934918344020844,0.5969668626785278,0.8495654463768005,-0.4443974196910858,0.2841643691062927,-1.281034469604492,-8.182228088378906,24.49069213867188,2,1
1562614338.288192,82,0,309601.735942875,-0.7293894839833418,1.759726133295649,0.3607889497030364,-0.01003723125904799,-3.186129093170166,-3.771459579467773,-0.06184965372085571,0.8820144534111023,0.046966552734375,2,0.3772191405296326,0.6675058007240295,-0.09442347288131714,0.6350008249282837,0.9189701676368713,-0.3530125021934509,0.1757165491580963,2.799942016601562,-5.988763809204102,20.687744140625,2,1
1562614338.320453,83,0,309601.770915875,-0.7178371295184133,1.666525683553288,0.1930889584327058,0.6799240708351135,-2.132052421569824,-5.357913970947266,-0.004096806049346924,1.152452945709229,0.1087672710418701,2,0.3194598853588104,0.666969895362854,-0.1683129668235779,0.6517418026924133,0.9769228100776672,-0.1918913573026657,0.0938069224357605,5.610754013061523,-1.566303253173828,17.5523681640625,2,1
1562614338.354351,84,0,309601.805858875,-0.761098746830401,1.611980037245626,-0.03308909539227643,2.20160698890686,-1.400312066078186,-6.979761123657227,0.2352830171585083,1.267910838127136,0.2396734952926636,2,0.2573212087154388,0.6740627288818359,-0.2682250142097473,0.6383420825004578,0.9986051917076111,0.03308305889368057,0.04114953428506851,6.379642486572266,1.950933456420898,16.13470458984375,2,1
1562614338.386239,85,0,309601.840831875,-0.8404531751110929,1.546313436605558,-0.2998637332165976,2.093615531921387,-1.747973561286926,-7.796306610107422,0.631078839302063,1.218196988105774,0.3247057199478149,2,0.1841221749782562,0.6740956902503967,-0.3839544355869293,0.6035504341125488,0.9550905227661133,0.2953900098800659,-0.02338805049657822,5.860485076904297,10.02559947967529,13.22528076171875,2,1
1562614338.435056,86,0,309601.875743875,-0.9005244423289083,1.440287151912342,-0.5684147688203464,0.2605252861976624,-2.655040264129639,-7.681315898895264,1.256840467453003,1.523058533668518,0.307403564453125,2,0.08572873473167419,0.6616743206977844,-0.480511337518692,0.5691630840301514,0.8355884552001953,0.5382967591285706,-0.1096753552556038,2.737922668457031,17.96410369873047,9.57537841796875,2,1
1562614338.452667,87,0,309601.910716875,-0.8944079670143369,1.353291081104155,-0.8398694173644439,-2.433806180953979,-2.532561063766479,-7.524472713470459,1.650426030158997,1.155630111694336,0.3060793876647949,2,-0.03935310617089272,0.6530110836029053,-0.5380626916885376,0.5315228700637817,0.6518317461013794,0.7445559501647949,-0.1440557092428207,-2.21693229675293,23.68990898132324,7.709747314453125,2,1
1562614338.486326,88,0,309601.945629875,-0.8015958010334081,1.384816366702538,-1.076374359221474,-2.711733102798462,-0.2731404304504395,-5.469737529754639,1.546265363693237,-0.1460310816764832,0.4189551472663879,2,-0.1494093984365463,0.6586386561393738,-0.5591484308242798,0.4808586537837982,0.4663401246070862,0.8802431225776672,-0.08774390816688538,-7.968527793884277,26.82098579406738,9.115631103515625,2,1
1562614338.518045,89,0,309601.980602875,-0.6764681644198141,1.556645795774109,-1.207067615898352,-1.596489429473877,2.45930004119873,-2.423285722732544,1.312537431716919,-0.6601901054382324,0.2886199951171875,2,-0.1894431263208389,0.6794072985649109,-0.5704400539398193,0.4208506345748901,0.3557260930538177,0.9345768094062805,-0.005034049041569233,-10.14410781860352,27.37844467163086,10.01931762695312,2,1
1562614338.551909,90,0,309602.015544875,-0.4993001704725848,1.818258277981295,-1.223683218178946,-1.824743628501892,2.656590938568115,0.1658513695001602,0.8381526470184326,-0.6482572555541992,-0.03671228885650635,2,-0.1824095845222473,0.7130146026611328,-0.5633823871612549,0.3754160404205322,0.3298215568065643,0.9403586983680725,0.08332616090774536,-12.97243690490723,27.21346664428711,11.99365234375,2,1
1562614338.590516,91,0,309602.050518875,-0.3801083497406079,2.010913382630743,-1.169350955596991,-1.538555145263672,2.148239612579346,1.365823149681091,0.5448697805404663,-0.4493486881256104,-0.2187120914459229,2,-0.1573246568441391,0.7473201155662537,-0.5420510768890381,0.3506310880184174,0.3535113334655762,0.9204971790313721,0.1664768010377884,-13.62714576721191,26.12610244750977,13.390625,2,1
1562614338.617795,92,0,309602.085430875,-0.3593448001034858,2.096974209872458,-1.110008947228145,-0.6962156891822815,1.782986283302307,1.283721089363098,0.3416473567485809,-0.3304980397224426,-0.363965630531311,2,-0.1270207464694977,0.7717029452323914,-0.5251089930534363,0.3355607390403748,0.3845069408416748,0.8957026600837708,0.223319411277771,-14.02330493927002,25.18249702453613,13.49960327148438,2,1
1562614338.650732,93,0,309602.120403875,-0.380826447746297,2.129268671499558,-1.086281114592044,0.2140685766935349,1.29947555065155,0.3497159481048584,0.3107562363147736,-0.3033999800682068,-0.4206632375717163,2,-0.1043303161859512,0.7826375365257263,-0.5224080085754395,0.3219995200634003,0.395011842250824,0.8849008679389954,0.2468126565217972,-14.27742385864258,24.73749160766602,13.55130004882812,2,1
1562614338.683787,94,0,309602.155345875,-0.4150666011426257,2.129448268442521,-1.104867162196879,0.8467842936515808,0.5814933776855469,-0.3852800726890564,0.3935554921627045,-0.4198905825614929,-0.3939691781997681,2,-0.09550479054450989,0.7809870839118958,-0.5341585278511047,0.3092132806777954,0.3809537589550018,0.8934045433998108,0.2381239831447601,-14.99978446960449,24.92477416992188,13.17807006835938,2,1
1562614338.716035,95,0,309602.190288875,-0.4643604382810578,2.085944306268784,-1.125797940131068,0.8100956678390503,-0.2096334397792816,-0.006618076004087925,0.5181882381439209,-0.4425103068351746,-0.335932731628418,2,-0.0934443324804306,0.7728540301322937,-0.5466541647911072,0.308438241481781,0.3745920062065125,0.9026113748550415,0.2120703905820847,-15.82519149780273,24.88537406921387,12.06936645507812,2,1
1562614338.749491,96,0,309602.225231875,-0.555891950018999,1.993877870279614,-1.131377086412428,1.290818095207214,-0.191944494843483,0.5355496406555176,0.6848372220993042,-0.1947147846221924,-0.2234207391738892,2,-0.08527982980012894,0.761616051197052,-0.5586121678352356,0.3172080218791962,0.3879047334194183,0.9049988985061646,0.174663320183754,-15.7881441116333,24.85247421264648,10.0379638671875,2,1
1562614338.781443,97,0,309602.225231875,-0.555891950018999,1.993877870279614,-1.131377086412428,1.290818095207214,-0.191944494843483,0.5355496406555176,0.6848372220993042,-0.1947147846221924,-0.2234207391738892,2,-0.08527982980012894,0.761616051197052,-0.5586121678352356,0.3172080218791962,0.3879047334194183,0.9049988985061646,0.174663320183754,-15.7881441116333,24.85247421264648,10.0379638671875,2,1
1562614338.831375,98,0,309602.260204875,-0.7129218155459348,1.862700543658208,-1.131172204039328,2.032845973968506,0.6225615739822388,0.7556087970733643,0.6902006864547729,-0.1124438047409058,-0.1152487993240356,2,-0.06329240649938583,0.7464802861213684,-0.5788098573684692,0.3220876455307007,0.4075956046581268,0.9049116969108582,0.1224774941802025,-15.09469413757324,24.15850830078125,7.727020263671875,2,1
1562614338.847426,99,0,309602.295116875,-0.9093308914779659,1.714321223098192,-1.111262173410933,2.321385622024536,0.847235381603241,1.324435114860535,0.7749136686325073,-0.01324540376663208,-0.08515489101409912,2,-0.02814637869596481,0.7286477088928223,-0.6024807691574097,0.3244955241680145,0.438970535993576,0.8962591886520386,0.06343940645456314,-14.61276912689209,23.58370971679688,6.193817138671875,2,1
1562614338.881361,100,0,309602.330089875,-1.075822499490729,1.595853906857994,-1.060230207237168,1.85247278213501,0.8332808613777161,1.703235626220703,0.7164996862411499,0.08659631013870239,-0.03371345996856689,2,0.01327495090663433,0.7112985253334045,-0.6194854974746704,0.3318370282649994,0.4885176420211792,0.8724679946899414,0.01224363315850496,-13.00786685943604,21.7657642364502,3.1693115234375,2,1
1562614338.913516,101,0,309602.365032875,-1.146821322068629,1.55600034793304,-1.000843047512994,0.5353854298591614,0.3470390439033508,1.775458216667175,0.4916999936103821,-0.204836368560791,-0.0262722373008728,2,0.0469655878841877,0.7027108073234558,-0.6219353675842285,0.3423274755477905,0.5395335555076599,0.8419261574745178,-0.007983509451150894,-11.60622406005859,19.73829078674316,0.951904296875,2,1
1562614338.947297,102,0,309602.400005875,-1.145615044807457,1.541325195781912,-0.9208997645989105,-0.1108349487185478,-0.8660544157028198,2.583768367767334,0.4225907921791077,-0.1051457524299622,-0.05461740493774414,2,0.07032329589128494,0.697236955165863,-0.6084867715835571,0.3723697364330292,0.6048414707183838,0.7961463928222656,-0.01783052459359169,-10.92763137817383,18.783203125,-1.160797119140625,2,1
1562614338.991137,103,0,309602.434917875,-1.141801750482339,1.502212052098754,-0.8213025506572644,0.2179217338562012,-1.274629712104797,2.874879121780396,0.3609774112701416,0.2050929069519043,0.05335718393325806,2,0.09260784834623337,0.6841636896133423,-0.5913837552070618,0.416664183139801,0.6796665787696838,0.7320338487625122,-0.04668766632676125,-11.75674438476562,18.51613998413086,-3.948394775390625,2,1
1562614339.013334,104,0,309602.469890875,-1.147598666578163,1.45891333429231,-0.7313994072054379,0.350195586681366,-0.994566023349762,2.357494115829468,0.2091511487960815,0.1735900640487671,0.1846134662628174,2,0.1139444187283516,0.6674350500106812,-0.5780960321426392,0.4553593993186951,0.7395873069763184,0.6679117679595947,-0.08309424668550491,-12.85282897949219,19.15549659729004,-5.3055419921875,2,1
1562614339.045152,105,0,309602.504802875,-1.136600995231195,1.438668794961411,-0.6522282059440764,-0.1869432479143143,-0.6802352666854858,2.303749799728394,0.1048697233200073,0.03291511535644531,0.2265605926513672,2,0.1328093260526657,0.655752420425415,-0.5614243149757385,0.4869837462902069,0.7878063321113586,0.6069587469100952,-0.104700893163681,-15.62529754638672,21.67990112304688,-6.5408935546875,2,1
1562614339.079541,106,0,309602.539775875,-1.095234970080672,1.438216342272475,-0.5702465177895153,-0.9106149077415466,-0.768797755241394,2.545650005340576,0.01389086246490479,0.04963672161102295,0.1828879117965698,2,0.148433119058609,0.6498693227767944,-0.5341077446937561,0.5199678540229797,0.8343808650970459,0.5398395657539368,-0.1112749427556992,-16.90657424926758,25.70206832885742,-4.668548583984375,2,1
1562614339.111264,107,0,309602.574718875,-1.028882871758993,1.426217907308028,-0.4894849131280622,-1.477083683013916,-1.664763450622559,2.377643585205078,-0.1386680603027344,0.1686691343784332,0.05240809917449951,2,0.1527562141418457,0.6427183747291565,-0.4990589916706085,0.5608198046684265,0.8733671307563782,0.4701713621616364,-0.1271572560071945,-15.21234130859375,29.48712921142578,-0.092620849609375,2,1
1562614339.156386,108,0,309602.609691875,-0.9575529253639564,1.377042396887892,-0.4257193857665588,-1.463095545768738,-2.604774713516235,2.031052112579346,-0.1407222747802734,0.2693383097648621,0.05826663970947266,2,0.1413296759128571,0.6263760924339294,-0.4668506383895874,0.6080538034439087,0.8937004208564758,0.4129760563373566,-0.1753578335046768,-13.41125392913818,30.44645881652832,2.726287841796875,2,1
1562614339.176741,109,0,309602.644603875,-0.8975127968141724,1.309792028891159,-0.3637670915137048,-0.9411971569061279,-2.50677490234375,2.094258785247803,-0.1162415146827698,0.360683262348175,0.1812809109687805,2,0.1306308656930923,0.6019577383995056,-0.4376747608184814,0.6549986600875854,0.9029107093811035,0.3557973206043243,-0.2411649227142334,-8.964686393737793,30.65414428710938,6.798919677734375,2,1
1562614339.231884,110,0,309602.67958325,-0.8542937022884367,1.250429184670341,-0.2985988880119169,-0.3907091915607452,-1.762104392051697,2.118301630020142,-0.1439962387084961,0.4216602444648743,0.2619261145591736,2,0.1299944967031479,0.5767247676849365,-0.4114079773426056,0.6937099695205688,0.9071210026741028,0.2941813766956329,-0.3009799420833588,-3.516761779785156,29.0301570892334,8.87860107421875,2,1
1562614339.242923,111,0,309602.71449525,-0.8293031640426864,1.223065808997169,-0.231430275320487,0.1936947554349899,-0.5369443893432617,1.957919836044312,-0.2588317394256592,0.5008779764175415,0.3127838373184204,2,0.1432291716337204,0.5600405335426331,-0.3883216083049774,0.717667281627655,0.9150835275650024,0.2293698936700821,-0.3316799998283386,1.403053283691406,26.65909004211426,9.4300537109375,2,1
1562614339.276798,112,0,309602.74946925,-0.8239979798753865,1.226032024657606,-0.1663071150291643,0.6136901378631592,0.3375636339187622,1.742611765861511,-0.2914344072341919,0.6381183862686157,0.2767418622970581,2,0.1673431992530823,0.5525761246681213,-0.3701838552951813,0.7277498245239258,0.928169846534729,0.1655415594577789,-0.3333117663860321,4.947837829589844,24.40047073364258,10.0361328125,2,1
1562614339.312069,113,0,309602.78441125,-0.8284309269843113,1.250733438806957,-0.1080145787273021,0.664592444896698,0.9093163013458252,1.353135585784912,-0.2988920211791992,0.8230085968971252,0.1972773671150208,2,0.1951974034309387,0.5527220368385315,-0.3547555506229401,0.7283850908279419,0.9436836838722229,0.1078046634793282,-0.3127926588058472,6.211793899536133,23.34672927856445,10.23382568359375,2,1
1562614339.342751,114,0,309602.78441125,-0.8284309269843113,1.250733438806957,-0.1080145787273021,0.664592444896698,0.9093163013458252,1.353135585784912,-0.2988920211791992,0.8230085968971252,0.1972773671150208,2,0.1951974034309387,0.5527220368385315,-0.3547555506229401,0.7283850908279419,0.9436836838722229,0.1078046634793282,-0.3127926588058472,6.211793899536133,23.34672927856445,10.23382568359375,2,1
1562614339.391842,115,0,309602.81938425,-0.8409209744476692,1.284496539461464,-0.07511598609441733,0.6066079139709473,0.9741010665893555,0.4674626886844635,-0.3418593406677246,0.8507030010223389,0.1309048533439636,2,0.2168781161308289,0.5587126016616821,-0.3471536040306091,0.7213102579116821,0.9565902948379517,0.07504536956548691,-0.2816082239151001,7.891838073730469,21.64525985717773,11.429931640625,2,1
1562614339.408987,116,0,309602.85429625,-0.8710349077197244,1.314281595174303,-0.0821863297134692,0.9180669784545898,0.8547428250312805,-1.033655047416687,-0.4554551243782043,0.9429889917373657,0.1156848073005676,2,0.2280001491308212,0.5670878887176514,-0.3564901947975159,0.7066414356231689,0.9640152454376221,0.08209383487701416,-0.2528545260429382,8.36761474609375,21.57700538635254,12.45697021484375,2,1
1562614339.440579,117,0,309602.88927025,-0.9221247757326054,1.318115326402025,-0.1582439181130166,0.6996651291847229,-0.2175275683403015,-3.29956841468811,-0.5413986444473267,0.7025333642959595,0.08315694332122803,2,0.2156304866075516,0.574512779712677,-0.3939713835716248,0.6842698454856873,0.9561480283737183,0.1575843095779419,-0.2468771189451218,6.887386322021484,24.05978393554688,12.51495361328125,2,1
1562614339.474431,118,0,309602.92421225,-0.9641160156945039,1.267504075147076,-0.2887687370214379,-0.2053353488445282,-1.633589744567871,-3.93287467956543,-0.225846529006958,0.3254787921905518,0.007634401321411133,2,0.1689464151859283,0.5729818940162659,-0.4451839625835419,0.6670533418655396,0.9148434400558472,0.2847721576690674,-0.2862977087497711,3.659633636474609,28.343017578125,11.74618530273438,2,1
1562614339.507224,119,0,309602.95915525,-0.9926698950563894,1.195262938993161,-0.4112393633905493,-0.5315428376197815,-1.681600093841553,-3.423203468322754,0.01316070556640625,0.3504246473312378,0.07544177770614624,2,0.1138919591903687,0.5647421479225159,-0.4863957166671753,0.6568973660469055,0.8527483940124512,0.3997456729412079,-0.336189866065979,2.035263061523438,30.38507461547852,11.19366455078125,2,1
1562614339.551453,120,0,309602.99409825,-1.015254952395855,1.138811491995067,-0.5385328735250928,-1.179956197738647,-1.102549195289612,-3.702498435974121,0.2272560596466064,0.3843233585357666,0.01540130376815796,2,0.05683257058262825,0.5630826950073242,-0.519992470741272,0.6397779583930969,0.7796007990837097,0.5128770470619202,-0.3594158887863159,-1.776601791381836,33.29602432250977,10.96820068359375,2,1
1562614339.572266,121,0,309603.02907125,-1.037149443706927,1.115816259294216,-0.6769920388102217,-1.073808789253235,0.2238427251577377,-3.764158487319946,0.3992990851402283,0.09293496608734131,0.01615375280380249,2,0.002832433441653848,0.5733473300933838,-0.549313485622406,0.6078812479972839,0.7001659870147705,0.6264512538909912,-0.3425296247005463,-6.78209114074707,35.54475402832031,12.359619140625,2,1
1562614339.606555,122,0,309603.06398325,-1.098104049643595,1.118137349808658,-0.7867579413351601,0.2752359509468079,1.75202751159668,-3.098150491714478,0.4424673914909363,-0.3681549429893494,0.03334927558898926,2,-0.02153007313609123,0.5874668955802917,-0.5820549130439758,0.5618106722831726,0.6350269913673401,0.7080676555633545,-0.3088382184505463,-12.2357292175293,37.30773162841797,13.38369750976562,2,1
1562614339.638674,123,0,309603.09895625,-1.195999684903073,1.120132095817117,-0.8488827968035408,1.178074359893799,2.150903463363647,-2.066677570343018,0.3809514045715332,-0.5374014377593994,0.01295053958892822,2,-0.01580287329852581,0.5965192914009094,-0.6154610514640808,0.5149006843566895,0.5948442816734314,0.7505425810813904,-0.2878299951553345,-14.47143936157227,37.80236053466797,13.15609741210938,2,1
1562614339.67222,124,0,309603.13389925,-1.282791921366172,1.111782063096466,-0.8808600190076505,0.8532391786575317,1.237748503684998,-1.228179454803467,0.3152867555618286,-0.4986826181411743,-0.03065520524978638,2,-0.004565750248730183,0.5991464853286743,-0.6399885416030884,0.4810584187507629,0.5706048607826233,0.7712865471839905,-0.2820052802562714,-18.05370330810547,38.80020904541016,12.2105712890625,2,1
1562614339.713512,125,0,309603.16887225,-1.321247449345973,1.101121788211398,-0.8975464378206874,0.1021795868873596,0.1476943790912628,-0.4477412402629852,0.3445135951042175,-0.3565776944160461,-0.01064759492874146,2,-0.002725881757214665,0.5990734100341797,-0.6503821611404419,0.4670188724994659,0.556011438369751,0.7817993760108948,-0.2822072505950928,-19.59341621398926,38.99074554443359,11.78640747070312,2,1
1562614339.737996,126,0,309603.20378425,-1.311624585809835,1.107738856085435,-0.9093424181414134,-0.5502114295959473,-0.1000708192586899,-0.1308085024356842,0.3450730443000793,-0.1947965025901794,-0.01259773969650269,2,-0.007866521365940571,0.6022843718528748,-0.6490194201469421,0.4647208750247955,0.5495771765708923,0.7890999913215637,-0.2743833065032959,-19.23187065124512,39.26023864746094,12.06552124023438,2,1
1562614339.78813,127,0,309603.23875725,-1.27004812216898,1.136824175420793,-0.9230971666884863,-0.9880499839782715,-0.1565983444452286,0.03755385056138039,0.2916994094848633,-0.2961274385452271,-0.1126763224601746,2,-0.01624279096722603,0.6106453537940979,-0.6406005024909973,0.4652736783027649,0.5474241375923157,0.7974741458892822,-0.2536968588829041,-18.5378360748291,39.02077484130859,13.17266845703125,2,1
1562614339.804602,128,0,309603.27366925,-1.212223302985057,1.176635447134454,-0.929925257780993,-0.9244375228881836,-0.2615988850593567,0.331210196018219,0.2870152592658997,-0.2838258743286133,-0.2582687139511108,2,-0.02397477440536022,0.6201770305633545,-0.6281028985977173,0.469353199005127,0.5520468950271606,0.801575243473053,-0.2296113222837448,-17.85384178161621,38.86196899414062,14.16708374023438,2,1
1562614339.8359,129,0,309603.30864225,-1.178478018254212,1.196921939245103,-0.9231061948984628,-0.2018390744924545,-0.151185467839241,0.3831983506679535,0.3245450258255005,-0.04048752784729004,-0.2670656442642212,2,-0.02557136677205563,0.6238330006599426,-0.6196829676628113,0.4755749702453613,0.5616664290428162,0.7974795699119568,-0.2203569859266281,-15.94469165802002,38.37674331665039,15.12445068359375,2,1
1562614339.872085,130,0,309603.34358525,-1.181840727390603,1.200839862928716,-0.9144500671790685,0.2235242128372192,0.324064701795578,0.1489914357662201,0.3323922753334045,-0.00821155309677124,-0.17060387134552,2,-0.02004479244351387,0.6239206194877625,-0.6195905804634094,0.4758454263210297,0.5689404010772705,0.7922271490097046,-0.2206425368785858,-14.52596664428711,38.32046890258789,15.42694091796875,2,1
1562614339.902752,131,0,309603.34358525,-1.181840727390603,1.200839862928716,-0.9144500671790685,0.2235242128372192,0.324064701795578,0.1489914357662201,0.3323922753334045,-0.00821155309677124,-0.17060387134552,2,-0.02004479244351387,0.6239206194877625,-0.6195905804634094,0.4758454263210297,0.5689404010772705,0.7922271490097046,-0.2206425368785858,-14.52596664428711,38.32046890258789,15.42694091796875,2,1
1562614339.951432,132,0,309603.37855825,-1.204254037321204,1.211737381792785,-0.9051859074492168,0.5859511494636536,1.088964462280273,0.09264152497053146,0.4139492511749268,0.08510696887969971,-0.1018292307853699,2,-0.006171257700771093,0.6256694793701172,-0.6239407658576965,0.4681853950023651,0.5781576037406921,0.7865399718284607,-0.2169992327690125,-13.50030517578125,38.37486267089844,15.13473510742188,2,1
1562614339.967806,133,0,309603.41347025,-1.24262928427049,1.236466524554679,-0.8977965415425272,0.6556044220924377,1.774875521659851,-0.1062003448605537,0.4195058345794678,0.0809638500213623,-0.09016603231430054,2,0.01640463806688786,0.6304455399513245,-0.6318843960762024,0.4505457878112793,0.5888208150863647,0.7819553017616272,-0.2045386135578156,-13.3686056137085,38.43202972412109,14.703125,2,1
1562614340.002048,134,0,309603.44844325,-1.252137238877836,1.278586660239018,-0.8991034111235886,-0.1912330240011215,0.9782900810241699,0.02478757128119469,0.3786417841911316,-0.1875351667404175,-0.204136073589325,2,0.0322667695581913,0.6397846937179565,-0.6336210966110229,0.4337727725505829,0.5959321856498718,0.7827692627906799,-0.1792688071727753,-13.2632303237915,38.51620864868164,15.10031127929688,2,1
1562614340.033582,135,0,309603.48338625,-1.216357790679116,1.307386653022482,-0.8854501432271998,-0.565461277961731,-0.4437511265277863,0.8465372323989868,0.4582666754722595,-0.1012983322143555,-0.162207305431366,2,0.03486085310578346,0.6452782154083252,-0.6236579418182373,0.4398312866687775,0.6111096143722534,0.7741999626159668,-0.1648014932870865,-12.22445774078369,38.07225799560547,15.7103271484375,2,1
1562614340.067669,136,0,309603.51832825,-1.189334410823758,1.305004130306451,-0.8513373037273296,0.003962561022490263,-0.5796910524368286,1.123031973838806,0.4444782137870789,-0.001638650894165039,0.04165923595428467,2,0.038028284907341,0.641876757144928,-0.6131007075309753,0.4589722752571106,0.6358376145362854,0.7521623373031616,-0.1730961501598358,-9.197690010070801,37.54790878295898,16.29605102539062,2,1
1562614340.112182,137,0,309603.55327125,-1.184711902328382,1.30887705297613,-0.8045355723873647,0.3636709451675415,0.3593614101409912,1.461227297782898,0.3053553104400635,-0.1220377683639526,0.2333012223243713,2,0.05503018945455551,0.6381167769432068,-0.605316698551178,0.4726207256317139,0.6697958111763,0.7205086946487427,-0.1795573085546494,-6.257349967956543,36.83631134033203,15.98223876953125,2,1
1562614340.133653,138,0,309603.58824425,-1.175506195515315,1.342991511413444,-0.7400304242375619,0.1256002336740494,0.9057154655456543,2.070441961288452,0.1507380604743958,-0.1564346551895142,0.2049047946929932,2,0.0860273465514183,0.6396982669830322,-0.5919628143310547,0.482665091753006,0.7193700075149536,0.6743103861808777,-0.1667708456516266,-5.032465934753418,36.24809646606445,15.90109252929688,2,1
1562614340.165435,139,0,309603.62315625,-1.137853570362047,1.384965051827454,-0.6563637778105023,-0.5535814762115479,0.1855045258998871,2.729942798614502,-0.06237113475799561,-0.1280832886695862,0.09286153316497803,2,0.1165920570492744,0.6428218483924866,-0.5658811926841736,0.5029560923576355,0.7785768508911133,0.6102402210235596,-0.1463727205991745,-1.61883544921875,34.44927978515625,16.25164794921875,2,1
1562614340.199569,140,0,309603.65813725,-1.08308706720287,1.398973060321044,-0.5603445348170946,-0.8488473296165466,-0.8222089409828186,2.982016563415527,-0.1766834855079651,0.02120763063430786,0.09110671281814575,2,0.1376138478517532,0.6392547488212585,-0.5315937995910645,0.5383529663085938,0.8345987200737,0.5314780473709106,-0.144831582903862,2.634883880615234,31.5959358215332,16.6929931640625,2,1
1562614340.231342,141,0,309603.69308025,-1.033234366389141,1.389066150366808,-0.4662837972046286,-0.6358039975166321,-0.9180327653884888,2.75461483001709,-0.2286787033081055,0.2140803933143616,0.2020124197006226,2,0.1532329022884369,0.6291270852088928,-0.4978248178958893,0.5769656300544739,0.8785356879234314,0.4495699107646942,-0.1614375710487366,7.01704216003418,27.78218269348145,16.24050903320312,2,1
1562614340.272489,142,0,309603.72805325,-0.9994003384158691,1.386933906965819,-0.3845467543258281,-0.3461494743824005,-0.2047116458415985,2.26608681678772,-0.313078761100769,0.2668462991714478,0.2395766973495483,2,0.1716532856225967,0.6211256980895996,-0.4689133167266846,0.6040350198745728,0.9113443493843079,0.3751390278339386,-0.1694760322570801,10.40523910522461,24.70590591430664,15.80014038085938,2,1
1562614340.297852,143,0,309603.76296525,-0.97701050609081,1.401135116245476,-0.3206766645176596,-0.2508690357208252,0.3599187433719635,1.726238131523132,-0.3998147249221802,0.2999688386917114,0.1963904500007629,2,0.1908838599920273,0.6192276477813721,-0.4450539350509644,0.6180999279022217,0.9353963732719421,0.3152087926864624,-0.1602409482002258,11.36022758483887,23.08099746704102,15.78656005859375,2,1
1562614340.345405,144,0,309603.79793925,-0.9574236862308001,1.419608351856489,-0.2720045000516009,-0.3674484491348267,0.3053906559944153,1.327876091003418,-0.4416285753250122,0.3512009680271149,0.1242939233779907,2,0.206139475107193,0.6204586029052734,-0.4245867729187012,0.6263095736503601,0.9522464871406555,0.2686627805233002,-0.1450752764940262,12.79463768005371,20.63304901123047,16.13531494140625,2,1
1562614340.363115,145,0,309603.83285125,-0.9359958998416065,1.429800572062069,-0.239206774483756,-0.4535642564296722,0.0494844987988472,0.8079980611801147,-0.4089548587799072,0.5150892734527588,0.05474156141281128,2,0.2131870239973068,0.6215202808380127,-0.4080264568328857,0.6338598132133484,0.9618853330612183,0.2369320690631866,-0.1365276724100113,13.58584403991699,18.62092971801758,16.26016235351562,2,1
1562614340.397254,146,0,309603.86782425,-0.9246506360059683,1.430857852786625,-0.2352073928823128,-0.1859848201274872,-0.1148190349340439,-0.2559302747249603,-0.351679801940918,0.6349588632583618,0.01193976402282715,2,0.2112823873758316,0.622526228427887,-0.403227299451828,0.6365756988525391,0.9629597663879395,0.2330446690320969,-0.1356416940689087,14.00881385803223,17.76419258117676,16.4466552734375,2,1
1562614340.432416,147,0,309603.90276625,-0.9333395337858781,1.4244512503305,-0.2684261404459624,0.3297815024852753,-0.06657297909259796,-1.33808445930481,-0.2202879190444946,0.5357410907745361,0.0009084939956665039,2,0.2009315490722656,0.6239598393440247,-0.4155791997909546,0.6305510401725769,0.9538829922676086,0.2652142643928528,-0.1406012624502182,13.97567558288574,18.1300048828125,16.30575561523438,2,1
1562614340.462931,148,0,309603.93774025,-0.9823448637742858,1.436856233857471,-0.318874591055307,1.686336517333984,1.461475849151611,-1.757764935493469,0.009171068668365479,0.6786940097808838,0.04048985242843628,2,0.2011170387268066,0.6294028162956238,-0.4427257478237152,0.6061335802078247,0.9410837292671204,0.3134980797767639,-0.1268080621957779,13.11707305908203,19.99917984008789,16.108154296875,2,1
1562614340.511366,149,0,309603.93774025,-0.9823448637742858,1.436856233857471,-0.318874591055307,1.686336517333984,1.461475849151611,-1.757764935493469,0.009171068668365479,0.6786940097808838,0.04048985242843628,2,0.2011170387268066,0.6294028162956238,-0.4427257478237152,0.6061335802078247,0.9410837292671204,0.3134980797767639,-0.1268080621957779,13.11707305908203,19.99917984008789,16.108154296875,2,1
1562614340.528842,150,0,309603.97265225,-1.108980915026185,1.502869699674548,-0.3815653221871932,4.065099239349365,4.055729866027832,-2.360629081726074,0.06471842527389526,0.3496749997138977,0.0063973069190979,2,0.2351188063621521,0.6428239345550537,-0.4878056049346924,0.5417953729629517,0.925942599773407,0.3723736703395844,-0.06299307197332382,10.43322563171387,23.38948440551758,16.44863891601562,2,1
1562614340.561095,151,0,309604.00762525,-1.307352595429108,1.583566841509936,-0.4612092573242597,5.506850719451904,4.602391719818115,-2.246009588241577,0.1204429864883423,0.02532127499580383,-0.1606242656707764,2,0.2937982976436615,0.6476113796234131,-0.5450535416603088,0.4440706670284271,0.8954420685768127,0.4450313448905945,0.01143587753176689,5.702787399291992,28.71205139160156,16.67633056640625,2,1
1562614340.594922,152,0,309604.04253725,-1.506021576006783,1.598605502737887,-0.5267178569362132,4.471439361572266,2.007182121276855,-1.491089582443237,0.1932621002197266,0.1791842579841614,-0.2445000410079956,2,0.3408923149108887,0.6291350126266479,-0.5965017676353455,0.3635481297969818,0.8641274571418762,0.5026987791061401,0.02403686940670013,1.802814483642578,32.90121459960938,14.02386474609375,2,1
1562614340.626849,153,0,309604.07751025,-1.612206629201877,1.52645804361665,-0.5722996757738174,1.513556957244873,-1.763004779815674,-1.208437442779541,0.1328878402709961,0.1320143342018127,-0.07287865877151489,2,0.3373185098171234,0.6062884330749512,-0.6353087425231934,0.3391363918781281,0.8398317694664001,0.5415667295455933,-0.03726111724972725,0.9305458068847656,33.98478317260742,12.32015991210938,2,1
1562614340.672792,154,0,309604.11245325,-1.619490718506983,1.415673477632386,-0.6081925187203333,-0.6119294762611389,-3.59774923324585,-0.8761096000671387,0.03243684768676758,-0.1460503339767456,0.2528809309005737,2,0.2923075258731842,0.5925858616828918,-0.6591886878013611,0.3589828312397003,0.810827910900116,0.5713850259780884,-0.126796618103981,-0.08241653442382812,35.10436630249023,9.3319091796875,2,1
1562614340.6932,155,0,309604.14742625,-1.552007939646559,1.319924073973362,-0.6407213499827478,-2.269316911697388,-3.827867984771729,-0.4270302355289459,0.0187532901763916,-0.3428196907043457,0.3810837864875793,2,0.2300169914960861,0.5895642042160034,-0.6629944443702698,0.3999306857585907,0.7765696048736572,0.5977738499641418,-0.1990124583244324,-0.2102298736572266,35.22558212280273,7.673553466796875,2,1
1562614340.726645,156,0,309604.18233825,-1.442337461654073,1.283666703271184,-0.6726060799487047,-2.658571243286133,-2.312686204910278,-0.102508969604969,0.03600573539733887,-0.4139106869697571,0.3592496514320374,2,0.174612745642662,0.598957896232605,-0.6476172804832458,0.4374376833438873,0.7501779794692993,0.6230265498161316,-0.2215196490287781,0.2886905670166016,34.70529174804688,8.389190673828125,2,1
1562614340.758486,157,0,309604.21731125,-1.348602847952367,1.300740436090865,-0.6983883223444526,-1.889595508575439,-0.7105761766433716,-0.1860716640949249,-0.004244029521942139,-0.3724066019058228,0.2057938575744629,2,0.1425161808729172,0.6144317984580994,-0.628729522228241,0.4548208117485046,0.738120973110199,0.64298415184021,-0.204325407743454,0.6735038757324219,34.12738418579102,9.95458984375,2,1
1562614340.792618,158,0,309604.25225425,-1.291567141442001,1.324468964084716,-0.7227942073741268,-1.140454769134521,-0.3170149028301239,-0.4533534944057465,0.03487527370452881,-0.2896942496299744,0.0125422477722168,2,0.1234555318951607,0.6271539926528931,-0.6175829172134399,0.4582880437374115,0.7273223996162415,0.6614828109741211,-0.1828732043504715,0.5328464508056641,33.82985687255859,10.56161499023438,2,1
1562614340.837898,159,0,309604.28719625,-1.25222783844582,1.336649993806732,-0.7513652594954371,-1.009104609489441,-0.5004535913467407,-0.6667646169662476,0.1447953581809998,-0.2653933763504028,-0.06726902723312378,2,0.1044562384486198,0.6358587741851807,-0.6120862364768982,0.4583916664123535,0.7108171582221985,0.682637095451355,-0.1695450246334076,0.3778400421142578,33.68745040893555,11.4002685546875,2,1
1562614340.85835,160,0,309604.32213925,-1.205478108301105,1.345699975173557,-0.7812095226843654,-1.177533864974976,-0.7415186166763306,-0.5112532377243042,0.2385064959526062,-0.3854218125343323,-0.1055651903152466,2,0.08139824122190475,0.6435303092002869,-0.605426013469696,0.4611967504024506,0.6921494007110596,0.7041387557983398,-0.1584861278533936,-0.5351696014404297,33.91017150878906,12.1417236328125,2,1
1562614340.911776,161,0,309604.35711225,-1.160680813520523,1.35325240613268,-0.7958568417373524,-0.7764574289321899,-0.6135827898979187,-0.06380458176136017,0.3163980841636658,-0.3390910029411316,-0.1023129224777222,2,0.06383620947599411,0.6483972668647766,-0.5970258116722107,0.4680449664592743,0.6831818819046021,0.7144633531570435,-0.1510118395090103,-0.3530063629150391,33.6114501953125,12.3480224609375,2,1
1562614340.924173,162,0,309604.39202425,-1.13902642558621,1.356653315767185,-0.7999486381065987,-0.3395532667636871,-0.1869339644908905,-0.04530869796872139,0.4231210350990295,-0.07005149126052856,-0.09608918428421021,2,0.05631359294056892,0.6502278447151184,-0.5924884080886841,0.4722182750701904,0.6808292269706726,0.7173203229904175,-0.148065060377121,-0.06777572631835938,33.50446319580078,12.66769409179688,2,1
1562614340.956101,163,0,309604.42699725,-1.117699649728867,1.365626014659536,-0.8063823878455643,-0.5493221879005432,-0.2677614390850067,-0.08956616371870041,0.4532080292701721,-0.1015275716781616,-0.1422251462936401,2,0.04964350163936615,0.6534768342971802,-0.5882588028907776,0.4737669229507446,0.6775978803634644,0.7217881083488464,-0.1410070955753326,-0.1218318939208984,33.18186187744141,12.45278930664062,2,1
1562614340.995479,164,0,309604.46194025,-1.093092317847055,1.372572679008065,-0.807221024182546,-0.3933850526809692,-0.2808005511760712,0.1836690902709961,0.6607242226600647,0.07902944087982178,-0.1541807055473328,2,0.04331321641802788,0.6557707190513611,-0.582379937171936,0.4784583449363708,0.6779674291610718,0.7223682999610901,-0.1361774653196335,-0.1822319030761719,32.42071533203125,12.61453247070312,2,1
1562614341.022135,165,0,309604.49691325,-1.073443362397991,1.387804558496966,-0.797976816175986,-0.3688548505306244,0.1885671019554138,0.3916444778442383,0.5425875782966614,-0.09559255838394165,-0.1229079365730286,2,0.04466831311583519,0.659152626991272,-0.5757248997688293,0.481729656457901,0.686500072479248,0.7159450650215149,-0.1270451098680496,0.4643592834472656,32.04700469970703,13.14962768554688,2,1
1562614341.073366,166,0,309604.53182525,-1.050618372998503,1.407671375512103,-0.775508588258969,-0.2361408770084381,-0.0215382631868124,0.9649559259414673,0.434642493724823,-0.2724295854568481,-0.1724854111671448,2,0.05104625597596169,0.662881076335907,-0.5656295418739319,0.4878997206687927,0.7045855522155762,0.7000793218612671,-0.1159659177064896,1.081413269042969,31.95124435424805,13.54641723632812,2,1
1562614341.088732,167,0,309604.53182525,-1.050618372998503,1.407671375512103,-0.775508588258969,-0.2361408770084381,-0.0215382631868124,0.9649559259414673,0.434642493724823,-0.2724295854568481,-0.1724854111671448,2,0.05104625597596169,0.662881076335907,-0.5656295418739319,0.4878997206687927,0.7045855522155762,0.7000793218612671,-0.1159659177064896,1.081413269042969,31.95124435424805,13.54641723632812,2,1
1562614341.121986,168,0,309604.56679825,-1.044539882566068,1.401421609776487,-0.7289306085128354,0.2596642971038818,-0.4349082112312317,1.470296144485474,0.4202486872673035,-0.005969107151031494,-0.08413708209991455,2,0.0643693283200264,0.6580204963684082,-0.5554521679878235,0.5043197870254517,0.7352136969566345,0.6660723686218262,-0.1257312297821045,1.939878463745117,31.45882987976074,13.49575805664062,2,1
1562614341.153932,169,0,309604.60171025,-1.053250569744188,1.389713102841455,-0.6728114267818317,0.607236385345459,0.1831908673048019,1.554617166519165,0.382208526134491,0.05112355947494507,0.1317397356033325,2,0.08456918597221375,0.6499417424201965,-0.5471592545509338,0.5206156969070435,0.7692853808403015,0.6231871843338013,-0.1408475637435913,3.779470443725586,30.82640075683594,12.64892578125,2,1
1562614341.188068,170,0,309604.63668425,-1.091037188536859,1.417903789649278,-0.6058643972689165,1.500205039978027,2.085056304931641,1.922677397727966,0.214574933052063,-0.06297636032104492,0.2054526209831238,2,0.128844752907753,0.6486940383911133,-0.5419347286224365,0.5185574889183044,0.8124212026596069,0.5694728493690491,-0.1251901537179947,5.113529205322266,29.70489883422852,12.07745361328125,2,1
1562614341.227424,171,0,309604.671617875,-1.138290225101054,1.473031514983862,-0.5184410887662801,1.263134241104126,2.172219276428223,2.516690731048584,-0.05897766351699829,-0.09733462333679199,0.06171119213104248,2,0.1899422854185104,0.6492539048194885,-0.5309309959411621,0.5103954672813416,0.8644449710845947,0.4955266714096069,-0.08478259295225143,6.767601013183594,28.07212066650391,12.36398315429688,2,1
1562614341.25379,172,0,309604.706590875,-1.154073492849561,1.510520424707267,-0.4235846873425703,0.1801093518733978,0.6945002675056458,2.706801414489746,-0.1951831579208374,0.06435805559158325,0.009610950946807861,2,0.2373297214508057,0.6451486945152283,-0.5090952515602112,0.5179572701454163,0.9099657535552979,0.4110309779644012,-0.05491552874445915,8.422346115112305,25.57426643371582,12.70068359375,2,1
1562614341.286993,173,0,309604.741503875,-1.128657442691114,1.510295584535593,-0.3330519380674475,-0.8703645467758179,-0.7553861141204834,2.561285972595215,-0.2416458129882812,0.3031108677387238,0.06235873699188232,2,0.259527325630188,0.6356688737869263,-0.4800674617290497,0.5459908843040466,0.943320095539093,0.3269287645816803,-0.05714130029082298,9.698810577392578,23.91169357299805,12.81106567382812,2,1
1562614341.319618,174,0,309604.776476875,-1.069495081224689,1.473136028899271,-0.2505765210603413,-1.771540880203247,-1.967502355575562,2.455209016799927,-0.2478467226028442,0.3951261043548584,0.09536033868789673,2,0.2600107789039612,0.6206161379814148,-0.4467829465866089,0.5895888209342957,0.9641534090042114,0.2479625195264816,-0.09446001052856445,11.97252082824707,20.52207183837891,12.02801513671875,2,1
1562614341.351679,175,0,309604.811388875,-0.9806193030748637,1.410850063516832,-0.1767481814794823,-2.331992387771606,-2.365301370620728,2.382396936416626,-0.2727606296539307,0.3773722052574158,0.1838707327842712,2,0.2448410391807556,0.6013824939727783,-0.407595157623291,0.642073392868042,0.9718554615974426,0.1758293509483337,-0.1567839235067368,14.29417419433594,16.86271476745605,10.26220703125,2,1
1562614341.392936,176,0,309604.846361875,-0.8933785254640069,1.358667474709314,-0.1146287509472178,-1.849251270294189,-1.438657641410828,2.060320377349854,-0.315119743347168,0.4137097001075745,0.2560386657714844,2,0.2307647913694382,0.5849510431289673,-0.3679847419261932,0.6849576830863953,0.9711692929267883,0.1143778860569,-0.2091597765684128,16.06848526000977,13.2580509185791,8.47222900390625,2,1
1562614341.417563,177,0,309604.881304875,-0.8435926710333981,1.3493840734443,-0.0661757525869559,-0.6026496887207031,0.1916361004114151,1.422118782997131,-0.3473258018493652,0.5584278106689453,0.213623046875,2,0.2320251166820526,0.580173134803772,-0.3383788466453552,0.7036073803901672,0.9734529852867126,0.0661274641752243,-0.2191269546747208,16.32003784179688,11.81245994567871,8.17034912109375,2,1
1562614341.468164,178,0,309604.916277875,-0.8444998376657138,1.387579841896109,-0.03208231297215602,0.6481233239173889,1.495487451553345,0.6555352210998535,-0.3621689081192017,0.6836966276168823,0.08926814794540405,2,0.2507747709751129,0.5882706046104431,-0.3243920803070068,0.6970075964927673,0.9827568531036377,0.03207680955529213,-0.1820994168519974,16.80886077880859,9.916025161743164,8.6695556640625,2,1
1562614341.48445,179,0,309604.951189875,-0.8846664357467864,1.449697679883074,-0.02626636354901973,1.40662407875061,1.891407012939453,-0.3908269107341766,-0.4069486856460571,0.6632194519042969,-0.0601152777671814,2,0.2748966813087463,0.6033665537834167,-0.3282792270183563,0.6727656126022339,0.9923343062400818,0.02626334317028522,-0.1207612305879593,16.13250350952148,9.462050437927246,10.45269775390625,2,1
1562614341.517424,180,0,309604.986162875,-0.9496454848445423,1.508025590592319,-0.05757509133404753,1.96960186958313,1.581378221511841,-1.443802714347839,-0.2411307096481323,0.9416460990905762,-0.1969119310379028,2,0.2941816747188568,0.6181782484054565,-0.350647360086441,0.6390300393104553,0.9963769912719727,0.05754328891634941,-0.06262559443712234,15.48564529418945,11.22601890563965,12.12930297851562,2,1
1562614341.55275,181,0,309605.021105875,-1.025644026269855,1.525792320605696,-0.1392552216772657,1.985417723655701,0.1383920609951019,-3.022847175598145,-0.2175301313400269,0.6626729369163513,-0.2052193284034729,2,0.2943983972072601,0.6253422498703003,-0.3956833183765411,0.6047407388687134,0.9893169403076172,0.1388055831193924,-0.04455330967903137,14.04451751708984,15.04029083251953,12.25799560546875,2,1
1562614341.583489,182,0,309605.056047875,-1.086597726285289,1.486819568195953,-0.2604263630012935,1.179200053215027,-1.180668234825134,-3.63240909576416,0.05583029985427856,0.320455938577652,-0.1038414239883423,2,0.2650954723358154,0.6238585710525513,-0.4525737762451172,0.5793978571891785,0.9628751277923584,0.2574925720691681,-0.08104974776506424,13.23415946960449,17.42072105407715,11.4833984375,2,1
1562614341.631975,183,0,309605.090990875,-1.12796423734337,1.431088867589309,-0.3639880534971502,0.6483322978019714,-1.13969612121582,-2.679508447647095,0.374500572681427,0.2941763401031494,0.01419490575790405,2,0.2294466197490692,0.6182953715324402,-0.4971326887607574,0.5638476014137268,0.9253795742988586,0.3560038208961487,-0.1301301717758179,10.98062705993652,21.70441818237305,9.257720947265625,2,1
1562614341.649747,184,0,309605.090990875,-1.12796423734337,1.431088867589309,-0.3639880534971502,0.6483322978019714,-1.13969612121582,-2.679508447647095,0.374500572681427,0.2941763401031494,0.01419490575790405,2,0.2294466197490692,0.6182953715324402,-0.4971326887607574,0.5638476014137268,0.9253795742988586,0.3560038208961487,-0.1301301717758179,10.98062705993652,21.70441818237305,9.257720947265625,2,1
1562614341.68115,185,0,309605.125963875,-1.151359262905298,1.385847171583887,-0.442822785404927,-0.06494593620300293,-1.041792273521423,-2.263577699661255,0.3251820206642151,0.2322451770305634,0.072121262550354,2,0.1975420564413071,0.6147338151931763,-0.5263024568557739,0.5532496571540833,0.8881362676620483,0.4284916818141937,-0.1661589443683624,9.052515029907227,24.75069999694824,7.685760498046875,2,1
1562614341.714954,186,0,309605.160875875,-1.14626052715137,1.351724306655809,-0.5259498334069609,-0.8357201814651489,-0.9875529408454895,-2.290101766586304,0.1672379970550537,-0.1167216300964355,0.1501129865646362,2,0.1571615636348724,0.6175145506858826,-0.5451475381851196,0.5447845458984375,0.84417724609375,0.5020346641540527,-0.1879520416259766,7.036865234375,27.01506805419922,6.542327880859375,2,1
1562614341.746925,187,0,309605.195848875,-1.126058853942088,1.340593100483438,-0.6034615517877515,-0.9910533428192139,-0.4193221628665924,-1.860758423805237,0.1241289377212524,-0.3633832335472107,0.1313433647155762,2,0.1196663677692413,0.6258936524391174,-0.5554845929145813,0.5342041254043579,0.8016555905342102,0.5674960017204285,-0.1878741979598999,4.905494689941406,28.77090835571289,6.95306396484375,2,1
1562614341.781122,188,0,309605.230791875,-1.100106767520455,1.347774090214138,-0.6579492152426926,-0.8765837550163269,-0.223339855670929,-1.13323974609375,0.05911767482757568,-0.4896592497825623,-0.007027864456176758,2,0.09349453449249268,0.6354175209999084,-0.558428943157196,0.5250339508056641,0.7716516256332397,0.6114954352378845,-0.1750066876411438,4.19120979309082,29.38644409179688,7.129058837890625,2,1
1562614341.813021,189,0,309605.265764875,-1.08058150965521,1.348933110600733,-0.6954186706381892,-0.4874383807182312,-0.3606981635093689,-0.9250279068946838,0.03384542465209961,-0.463772177696228,-0.03754502534866333,2,0.07377328723669052,0.6403771042823792,-0.560191810131073,0.5202497839927673,0.7489664554595947,0.6407069563865662,-0.1689493358135223,3.379806518554688,29.93857383728027,7.4862060546875,2,1
1562614341.846807,190,0,309605.300676875,-1.087918471440281,1.333861529613168,-0.7321232640754174,0.1099266558885574,-0.2181311249732971,-1.129220962524414,0.1819815635681152,-0.3243106007575989,-0.01139342784881592,2,0.05827056616544724,0.6397778391838074,-0.5691487193107605,0.5131848454475403,0.7229778170585632,0.6684503555297852,-0.1745777130126953,2.282041549682617,30.61181259155273,7.128021240234375,2,1
1562614341.879083,191,0,309605.335649875,-1.105481613634645,1.319908275519726,-0.7671177312670745,0.03632781654596329,0.02091271243989468,-0.9590058922767639,0.3215525150299072,-0.32808917760849,-0.03627961874008179,2,0.04687324911355972,0.6390918493270874,-0.5799040198326111,0.5030665397644043,0.6973754167556763,0.694063127040863,-0.1787290126085281,0.6448860168457031,31.19934844970703,6.51904296875,2,1
1562614341.912736,192,0,309605.370561875,-1.109246672074004,1.321058934440494,-0.790823336506208,-0.1435769200325012,0.1544823348522186,-0.5119091868400574,0.3556889295578003,-0.4126777648925781,-0.1116789579391479,2,0.03959557414054871,0.6415036916732788,-0.5846696496009827,0.4950419962406158,0.6814432144165039,0.7109325528144836,-0.1738104075193405,0.09627914428710938,31.65937042236328,6.394287109375,2,1
1562614341.94495,193,0,309605.405534875,-1.107916320402051,1.326403713424303,-0.8015903248510552,-0.03477777168154716,0.0875200629234314,-0.1804865747690201,0.4269183874130249,-0.2891051769256592,-0.1741774082183838,2,0.03672865033149719,0.6438160538673401,-0.5859665274620056,0.4907087683677673,0.6748958826065063,0.7184631824493408,-0.1683037877082825,-0.6687564849853516,31.96413040161133,6.215362548828125,2,1
1562614341.978896,194,0,309605.440477875,-1.111663758365365,1.325089122188173,-0.8049147205761545,0.03763490915298462,-0.002440713346004486,-0.0980265885591507,0.4795708656311035,-0.1387645602226257,-0.1745892763137817,2,0.03631363436579704,0.6437211036682129,-0.5874388813972473,0.4891011118888855,0.6723535060882568,0.7207715511322021,-0.1686089187860489,-0.7720012664794922,32.12667846679688,5.685943603515625,2,1
1562614342.031442,195,0,309605.475450875,-1.112049166061128,1.319528021306487,-0.808013325959378,0.03614192828536034,-0.1973117738962173,-0.0633094534277916,0.590610682964325,-0.04587721824645996,-0.1735296249389648,2,0.0336507186293602,0.6426297426223755,-0.5881204605102539,0.4899072647094727,0.6692392826080322,0.7229159474372864,-0.171789288520813,-1.272054672241211,31.97544860839844,5.34259033203125,2,1
1562614342.044652,196,0,309605.510362875,-1.125781347382102,1.309312935134919,-0.8050128293526073,0.4092001914978027,0.1944469511508942,0.06346713006496429,0.670523464679718,-0.009392201900482178,-0.06708210706710815,2,0.03615783900022507,0.6396126747131348,-0.5911956429481506,0.4899756014347076,0.6695418953895569,0.7208395600318909,-0.1791764795780182,-1.689329147338867,32.00823211669922,4.84326171875,2,1
1562614342.076751,197,0,309605.545336875,-1.131786262422648,1.316623511890579,-0.792746329278905,0.005149975884705782,0.2197080254554749,0.4973941743373871,0.4596588611602783,-0.3287016153335571,-0.08380985260009766,2,0.04479951784014702,0.6401167511940002,-0.5906146764755249,0.4893034100532532,0.6793411374092102,0.7122836112976074,-0.1764871031045914,-1.668148040771484,31.99653625488281,4.96441650390625,2,1
1562614342.115358,198,0,309605.580248875,-1.109525487496817,1.314647284494433,-0.7612687113361346,-0.2546545565128326,-0.9036844968795776,1.27103316783905,0.4515064358711243,-0.2155291438102722,-0.100237250328064,2,0.04881405830383301,0.6371081471443176,-0.5800900459289551,0.5051791667938232,0.7003406286239624,0.6898404955863953,-0.183420792222023,-0.9255180358886719,31.87590789794922,5.059783935546875,2,1
1562614342.142597,199,0,309605.615221875,-1.081268053973406,1.292814150251227,-0.7110714595166545,-0.1568719446659088,-1.18642246723175,1.622154951095581,0.4393054842948914,0.001018106937408447,0.04974538087844849,2,0.05237803980708122,0.627135694026947,-0.5649126768112183,0.5336955785751343,0.7285771369934082,0.6526459455490112,-0.207914724946022,0.5439987182617188,31.54309463500977,4.650390625,2,1
1562614342.192139,200,0,309605.650163875,-1.057927047930761,1.276040506942638,-0.6542370748131997,0.03463190048933029,-0.6988040208816528,1.772397994995117,0.2760224938392639,-0.06305795907974243,0.2185767292976379,2,0.06179742142558098,0.6171879172325134,-0.5490910410881042,0.5601421594619751,0.7592907547950745,0.6085540056228638,-0.2305203080177307,2.280078887939453,30.46706771850586,3.7899169921875,2,1
1562614342.208619,201,0,309605.650163875,-1.057927047930761,1.276040506942638,-0.6542370748131997,0.03463190048933029,-0.6988040208816528,1.772397994995117,0.2760224938392639,-0.06305795907974243,0.2185767292976379,2,0.06179742142558098,0.6171879172325134,-0.5490910410881042,0.5601421594619751,0.7592907547950745,0.6085540056228638,-0.2305203080177307,2.280078887939453,30.46706771850586,3.7899169921875,2,1
1562614342.242429,202,0,309605.68515325,-1.038357376861045,1.279521373908977,-0.5864348858478452,0.1608875840902328,0.03377514332532883,2.113498449325562,0.1238753795623779,-0.0916982889175415,0.2733156085014343,2,0.08225145936012268,0.6112597584724426,-0.5308717489242554,0.5811810493469238,0.797835111618042,0.5533950924873352,-0.2391924113035202,4.18382453918457,29.21366500854492,3.53338623046875,2,1
1562614342.274519,203,0,309605.72006525,-1.014188764635755,1.299772526025825,-0.5090561695639135,-0.05003631114959717,0.2126162946224213,2.376988172531128,-0.05289179086685181,-0.07368886470794678,0.2006655335426331,2,0.1091549471020699,0.6092609167098999,-0.5073699355125427,0.5995515584945679,0.8413305282592773,0.4873532950878143,-0.2337726652622223,5.258438110351562,28.4690113067627,3.6552734375,2,1
1562614342.308192,204,0,309605.75503825,-0.9801870972414264,1.31329494033371,-0.4272890533957295,-0.3216100335121155,-0.2002801448106766,2.512252569198608,-0.1145063638687134,0.06498149037361145,0.163810670375824,2,0.1326539665460587,0.60540771484375,-0.478542149066925,0.6219983696937561,0.8800862431526184,0.4144051074981689,-0.2317688465118408,7.538114547729492,26.28282165527344,4.009857177734375,2,1
1562614342.350906,205,0,309605.78998025,-0.9428722277100865,1.315272868895626,-0.3465858739534983,-0.3575118780136108,-0.366580069065094,2.458751201629639,-0.1279870867729187,0.2212586998939514,0.1890214085578918,2,0.1518708914518356,0.5983927249908447,-0.4479599893093109,0.646678626537323,0.9099997282028198,0.3396886885166168,-0.2377227544784546,10.1473503112793,24.00119400024414,4.130401611328125,2,1
1562614342.374653,206,0,309605.82492325,-0.9114230663619121,1.317342318150384,-0.267847559151066,-0.2194518446922302,-0.1101496815681458,2.366661787033081,-0.1775078177452087,0.3052809834480286,0.2101969122886658,2,0.1721435487270355,0.5911535620689392,-0.4183036684989929,0.6677771210670471,0.9335342049598694,0.2646563649177551,-0.2418081313371658,12.10634803771973,21.43852043151855,4.4576416015625,2,1
1562614342.406065,207,0,309605.85986625,-0.8855000710377786,1.325653388862724,-0.1925954340418951,-0.1506096720695496,0.157731294631958,2.200293779373169,-0.2631112933158875,0.3974995613098145,0.1805192232131958,2,0.1939273178577423,0.5859081149101257,-0.3896048367023468,0.6836022138595581,0.9521661996841431,0.1914069801568985,-0.2382077574729919,13.22545433044434,20.12958717346191,4.76470947265625,2,1
1562614342.440081,208,0,309605.89483925,-0.8630103008090694,1.338966777816292,-0.1255683323611029,-0.1839081943035126,0.3293836712837219,1.883285999298096,-0.3321948051452637,0.5099195241928101,0.1384305357933044,2,0.2143498063087463,0.5831632614135742,-0.3626803159713745,0.6945773959159851,0.965584933757782,0.1252386122941971,-0.2279495447874069,14.78604888916016,17.34137153625488,5.267913818359375,2,1
1562614342.472711,209,0,309605.92975125,-0.8435044950327388,1.353948867692257,-0.07648300239740982,-0.2524285912513733,0.3615270853042603,1.220545291900635,-0.3932535648345947,0.7050830721855164,0.06586039066314697,2,0.2290612906217575,0.5833261609077454,-0.3407024443149567,0.7008448243141174,0.9737257361412048,0.07640846073627472,-0.2145230323076248,15.97869110107422,15.53082084655762,6.15142822265625,2,1
1562614342.510658,210,0,309605.96472425,-0.8306058567300961,1.360498832393249,-0.06035997589318043,-0.2631032168865204,-0.005274082534015179,0.1136835962533951,-0.4042300581932068,0.7455828189849854,4.619359970092773e-05,2,0.232195258140564,0.5847221612930298,-0.3308854401111603,0.7033493518829346,0.9761879444122314,0.0603233315050602,-0.208370715379715,16.63000869750977,14.65467262268066,6.63037109375,2,1
1562614342.53785,211,0,309605.99966725,-0.8313303708985952,1.348189705967075,-0.08031986700731009,0.07024684548377991,-0.4869306087493896,-0.864538848400116,-0.2313691377639771,0.8113042116165161,-0.01615631580352783,2,0.2231475710868835,0.5832449793815613,-0.3381489813327789,0.7040494680404663,0.9721809029579163,0.08023353666067123,-0.2200609147548676,16.63200378417969,14.86665058135986,6.655487060546875,2,1
1562614342.584728,212,0,309606.03464025,-0.8633753660634019,1.338347395101433,-0.1283591643478159,0.842117965221405,0.05595197528600693,-1.978213906288147,-0.128248929977417,0.8602851629257202,0.0935981273651123,2,0.2133288234472275,0.5833161473274231,-0.3636290729045868,0.6942672729492188,0.9650997519493103,0.1280069798231125,-0.2284661680459976,16.0425910949707,16.59798049926758,6.37371826171875,2,1
1562614342.603984,213,0,309606.06955225,-0.9106621939452006,1.342169283972331,-0.2163829088183615,0.4733514487743378,0.3869573175907135,-3.092020511627197,-0.06216824054718018,0.4690255224704742,0.1029665470123291,2,0.1959105581045151,0.5924030542373657,-0.4026880860328674,0.6697163581848145,0.9512657523155212,0.2146982997655869,-0.2213553488254547,14.85333633422852,19.98016929626465,5.719635009765625,2,1
1562614342.637746,214,0,309606.10452525,-0.9268121481930294,1.34581717605291,-0.3233944610085243,-0.6528318524360657,0.110645592212677,-2.956097602844238,0.1838861107826233,0.3473939895629883,-0.02062153816223145,2,0.1623418927192688,0.6065346002578735,-0.4347565472126007,0.645560085773468,0.9242674708366394,0.3177868723869324,-0.2115217745304108,12.34536743164062,24.13203811645508,6.159820556640625,2,1
1562614342.671908,215,0,309606.13943725,-0.9009296860625015,1.346370698165263,-0.4240444172218924,-1.617125272750854,-0.4800956249237061,-2.532125473022461,0.2545976638793945,0.1627698540687561,-0.1640126705169678,2,0.1172588691115379,0.6203485727310181,-0.4508931636810303,0.6309622526168823,0.8885754942893982,0.4114500284194946,-0.2028360068798065,9.90831184387207,27.35696983337402,7.188018798828125,2,1
1562614342.704287,216,0,309606.17441025,-0.8600335144049186,1.343058928811251,-0.5192756058196842,-1.439605474472046,-0.6279341578483582,-2.354353666305542,0.1958041191101074,-0.1360999643802643,-0.1607354879379272,2,0.06799746304750443,0.6303731203079224,-0.4606204032897949,0.6211560964584351,0.8457622528076172,0.4962513744831085,-0.1960121542215347,8.754657745361328,28.72615814208984,7.739990234375,2,1
1562614342.749124,217,0,309606.20935325,-0.8586160107098701,1.342707793584822,-0.5947548290306319,0.03174513578414917,0.4506714046001434,-1.929816365242004,0.1243517994880676,-0.4048075079917908,-0.03963768482208252,2,0.03895255550742149,0.6362690925598145,-0.4773323833942413,0.6048125028610229,0.8068336248397827,0.5603057146072388,-0.18728868663311,6.280435562133789,30.88050079345703,8.6375732421875,2,1
1562614342.770098,218,0,309606.24432625,-0.9065335216039089,1.353629429144359,-0.6428497389944831,1.079890370368958,1.326437711715698,-1.383710026741028,0.07707047462463379,-0.5205658078193665,-0.05685186386108398,2,0.03880714625120163,0.6420797109603882,-0.5017789006233215,0.5783126354217529,0.7815908193588257,0.5994787812232971,-0.172455295920372,3.942880630493164,32.65316772460938,8.59564208984375,2,1
1562614342.801913,219,0,309606.24432625,-0.9065335216039089,1.353629429144359,-0.6428497389944831,1.079890370368958,1.326437711715698,-1.383710026741028,0.07707047462463379,-0.5205658078193665,-0.05685186386108398,2,0.03880714625120163,0.6420797109603882,-0.5017789006233215,0.5783126354217529,0.7815908193588257,0.5994787812232971,-0.172455295920372,3.942880630493164,32.65316772460938,8.59564208984375,2,1
1562614342.835402,220,0,309606.27923825,-0.9703082618227001,1.357201644131774,-0.6702512851084736,1.267231345176697,1.076642751693726,-0.9159849286079407,0.02133238315582275,-0.490101158618927,-0.06322133541107178,2,0.04996296390891075,0.6437742114067078,-0.5254526138305664,0.5540379285812378,0.7658569812774658,0.621182918548584,-0.166116937994957,2.082447052001953,34.1672477722168,8.158966064453125,2,1
1562614342.867882,221,0,309606.31421125,-1.022317114010081,1.347749105849288,-0.6890731969992135,0.8108760714530945,0.4231707453727722,-0.7176511883735657,0.06387788057327271,-0.4046431183815002,-0.02337348461151123,2,0.05712909996509552,0.641381561756134,-0.5436198115348816,0.5383712649345398,0.7527158260345459,0.6358221173286438,-0.1707319170236588,0.8971042633056641,34.99727630615234,7.24957275390625,2,1
1562614342.911579,222,0,309606.34912325,-1.042102544959772,1.337184344302773,-0.7058424104407469,0.05669848248362541,-0.085512675344944,-0.4670392274856567,0.2163687944412231,-0.3164684176445007,-0.01179033517837524,2,0.0543239563703537,0.6394984722137451,-0.5523639917373657,0.5319629907608032,0.7403922080993652,0.6486752033233643,-0.1761812269687653,0.3020725250244141,35.22349166870117,7.04437255859375,2,1
1562614342.933824,223,0,309606.38409725,-1.034179811600837,1.338990964233535,-0.7166621764269612,-0.3596745729446411,-0.06605096906423569,-0.1327811181545258,0.2891184091567993,-0.303821861743927,-0.061046302318573,2,0.04825268313288689,0.6411406397819519,-0.5522109866142273,0.5307290554046631,0.7338352799415588,0.6568716168403625,-0.1732207238674164,-0.2870082855224609,35.82383728027344,7.01422119140625,2,1
1562614342.969836,224,0,309606.41903925,-1.014962450326687,1.35171271601804,-0.7141723869637597,-0.3418748378753662,0.03030251152813435,0.3395205736160278,0.2830298542976379,-0.3417526483535767,-0.1864961385726929,2,0.04649663716554642,0.6447673439979553,-0.5463348627090454,0.5325706601142883,0.7375738024711609,0.6549922823905945,-0.1642262637615204,-0.3604850769042969,35.8526725769043,7.70166015625,2,1
1562614342.999205,225,0,309606.45401225,-1.006293479258056,1.358671624771329,-0.6961142980296493,0.08982652425765991,0.05140594393014908,0.6205931901931763,0.3416144251823425,-0.1481760740280151,-0.2405911684036255,2,0.05231407284736633,0.6453575491905212,-0.5403715968132019,0.5373783111572266,0.750140368938446,0.6412408947944641,-0.1615537405014038,0.4059410095214844,35.40542602539062,8.1295166015625,2,1
1562614343.033141,226,0,309606.48892525,-1.01351312024172,1.361454424699302,-0.6744527641835485,0.367551863193512,0.2963852286338806,0.5151811838150024,0.2831861972808838,-0.05372226238250732,-0.2027363181114197,2,0.06344050914049149,0.6440636515617371,-0.5379905104637146,0.5401144623756409,0.763996958732605,0.6244699954986572,-0.1623146235942841,0.8684368133544922,35.52644729614258,8.292694091796875,2,1
1562614343.071778,227,0,309606.52389825,-1.033241894643308,1.361343039561488,-0.6545035940122096,0.7248548269271851,0.3160414099693298,0.4728849828243256,0.2941204309463501,-0.04758453369140625,-0.2084096074104309,2,0.07714315503835678,0.6415373682975769,-0.5393854379653931,0.5399463772773743,0.7760113477706909,0.6087654829025269,-0.1649574786424637,1.670814514160156,35.14080047607422,7.94659423828125,2,1
1562614343.098881,228,0,309606.55884025,-1.073940949349182,1.353725833233175,-0.6330267147747847,1.135278224945068,0.6189514994621277,0.2875249981880188,0.3230026960372925,0.1663253903388977,-0.08452296257019043,2,0.09599678218364716,0.6355821490287781,-0.5464721918106079,0.5368316173553467,0.7873203158378601,0.5915877223014832,-0.1736398935317993,2.148124694824219,35.12628173828125,7.431427001953125,2,1
1562614343.150428,229,0,309606.59378325,-1.103750792520029,1.357748910821232,-0.6254509824922917,0.3367909789085388,0.4338189363479614,-0.01443574018776417,0.1573997735977173,-0.08256959915161133,-0.06097698211669922,2,0.1093471199274063,0.6342998743057251,-0.5527517199516296,0.5293132066726685,0.7923702001571655,0.5854629278182983,-0.1714137494564056,2.412178039550781,35.24263381958008,7.171600341796875,2,1
1562614343.165082,230,0,309606.62872625,-1.089107608462696,1.350960404117603,-0.6213133379806043,-0.5498491525650024,-0.9299306869506836,0.3426020741462708,0.2417349815368652,-0.07742470502853394,-0.08608067035675049,2,0.1043565943837166,0.6328127384185791,-0.5484170913696289,0.5365597009658813,0.7935454845428467,0.5821035504341125,-0.1773154735565186,2.29365348815918,35.54656219482422,7.789886474609375,2,1
1562614343.196816,231,0,309606.6636832917,-1.052347084040654,1.323720078795167,-0.613033047993494,-0.9094271659851074,-1.531628489494324,0.4101569354534149,0.3051699995994568,0.0850595235824585,0.02939832210540771,2,0.08844488114118576,0.6262266039848328,-0.5380774140357971,0.5572167038917542,0.7930682301521301,0.5753508806228638,-0.2000354826450348,2.559225082397461,35.1806640625,7.845550537109375,2,1
1562614343.230875,232,0,309606.6985952917,-1.003630821077251,1.30003645838567,-0.6102143766089059,-1.118485689163208,-1.374399781227112,0.4036746919155121,0.2594982981681824,-0.1309552192687988,0.1337469816207886,2,0.0680137500166893,0.6211099028587341,-0.5246254205703735,0.5782428383827209,0.7896682024002075,0.573043167591095,-0.219193235039711,3.634918212890625,34.84760284423828,7.988616943359375,2,1
1562614343.263212,233,0,309606.7335682917,-0.9606664760260696,1.29265738697037,-0.591681126427964,-0.5884488224983215,-0.6032097339630127,1.057223677635193,0.1703111529350281,-0.3142618536949158,0.1530045866966248,2,0.05979631841182709,0.6184486150741577,-0.5085656642913818,0.5960760712623596,0.7981055378913879,0.5577571392059326,-0.2278914153575897,4.522098541259766,34.19659423828125,8.77008056640625,2,1
1562614343.307451,234,0,309606.7685112917,-0.9366063780035498,1.297532255716352,-0.5418330034338025,0.02990172058343887,-0.116028368473053,1.744826078414917,0.003792524337768555,-0.3207944631576538,0.08876746892929077,2,0.07248926907777786,0.6157395839691162,-0.4908339083194733,0.6121211051940918,0.8249747753143311,0.5157073140144348,-0.2312201410531998,6.457283020019531,32.81342315673828,9.26568603515625,2,1
1562614343.328714,235,0,309606.8034532917,-0.9253891459788615,1.299770626551305,-0.4735804087352351,0.3633043467998505,-0.1018636971712112,2.026981353759766,-0.08806133270263672,-0.1836918592453003,0.0802534818649292,2,0.09542747586965561,0.6097263097763062,-0.472475677728653,0.6292011141777039,0.8574552536010742,0.4560755491256714,-0.2382548451423645,9.050197601318359,30.52734756469727,9.299224853515625,2,1
1562614343.362971,236,0,309606.8383962917,-0.9248146984177092,1.297666427281319,-0.3994369145797049,0.6479107141494751,-0.01939763873815536,2.062829971313477,-0.0763242244720459,0.02733105421066284,0.1585502028465271,2,0.1227266564965248,0.6005681157112122,-0.4556762874126434,0.64545738697052,0.8871294856071472,0.3888996541500092,-0.2485122084617615,10.16589546203613,29.46625518798828,9.1044921875,2,1
1562614343.394582,237,0,309606.8383962917,-0.9248146984177092,1.297666427281319,-0.3994369145797049,0.6479107141494751,-0.01939763873815536,2.062829971313477,-0.0763242244720459,0.02733105421066284,0.1585502028465271,2,0.1227266564965248,0.6005681157112122,-0.4556762874126434,0.64545738697052,0.8871294856071472,0.3888996541500092,-0.2485122084617615,10.16589546203613,29.46625518798828,9.1044921875,2,1
1562614343.428539,238,0,309606.8733692917,-0.9299597951485855,1.300695439423727,-0.3215502048419742,0.7568545937538147,0.2393912225961685,2.126435041427612,-0.09577775001525879,0.1931063532829285,0.2083264589309692,2,0.1541118770837784,0.5913316607475281,-0.4389051795005798,0.6587401628494263,0.914348840713501,0.3160376846790314,-0.2531527876853943,12.48208427429199,26.89254760742188,8.880828857421875,2,1
1562614343.470228,239,0,309606.9082812917,-0.9330530536811953,1.313137799474374,-0.2471156409669057,0.5184016227722168,0.4200939238071442,1.953538656234741,-0.1481729745864868,0.3720517754554749,0.1972143650054932,2,0.1852697879076004,0.5849247574806213,-0.4207451343536377,0.6682153940200806,0.9376142024993896,0.2446082383394241,-0.2470762729644775,14.31185150146484,24.3702278137207,8.89300537109375,2,1
1562614343.494922,240,0,309606.9432542917,-0.9233831373064738,1.32621940321393,-0.1856371338901616,-0.01114345155656338,0.2193916589021683,1.658189654350281,-0.1808834671974182,0.4782472848892212,0.1184823513031006,2,0.2076376080513,0.5812863707542419,-0.4006310701370239,0.6771172285079956,0.9535701870918274,0.1845727562904358,-0.2379855513572693,15.81139755249023,21.84197425842285,9.564849853515625,2,1
1562614343.526599,241,0,309606.9781972917,-0.9054259287640563,1.331392656956634,-0.1410174677662568,-0.281929612159729,-0.00145837664604187,1.171571373939514,-0.1708089113235474,0.6474999189376831,0.04521292448043823,2,0.219647616147995,0.5782474875450134,-0.382287472486496,0.6864699721336365,0.9618361592292786,0.1405505537986755,-0.2347695380449295,16.33761215209961,20.97356414794922,9.6708984375,2,1
1562614343.560719,242,0,309607.0131702917,-0.8833335488352102,1.329522265815015,-0.1190976029757551,-0.543510377407074,-0.1884575635194778,0.5287838578224182,-0.2164332866668701,0.6149594187736511,0.01969081163406372,2,0.2208660840988159,0.576710045337677,-0.3690211474895477,0.6945841312408447,0.9641557931900024,0.1188162490725517,-0.2372473925352097,17.19112777709961,19.30964660644531,10.16162109375,2,1
1562614343.592401,243,0,309607.0480822917,-0.8627007732019047,1.324947040551665,-0.1166118674236882,-0.4752174913883209,-0.208496943116188,0.05448305606842041,-0.2215570211410522,0.5796624422073364,-0.0310051441192627,2,0.2149840742349625,0.5769906640052795,-0.3616576194763184,0.7000480890274048,0.9633436799049377,0.1163477599620819,-0.2417272478342056,17.43873977661133,18.25421714782715,10.31423950195312,2,1
1562614343.630777,244,0,309607.0830552917,-0.8713019772045516,1.332108015024512,-0.1330359044884958,0.4323899447917938,0.5346546173095703,-0.9626830816268921,-0.2340633273124695,0.7099112272262573,0.02053624391555786,2,0.2127918303012848,0.5809905529022217,-0.3683051764965057,0.6939172148704529,0.9630633592605591,0.1326438337564468,-0.2343392223119736,17.26214218139648,18.73527717590332,10.73004150390625,2,1
1562614343.658459,245,0,309607.1179672917,-0.8947164089002059,1.344197297801988,-0.1885950593202759,0.06457898765802383,0.2436982393264771,-2.008681535720825,-0.2277309894561768,0.2848957180976868,-0.08211207389831543,2,0.2017143368721008,0.5907374620437622,-0.3898575901985168,0.6770166158676147,0.9571579098701477,0.1874790489673615,-0.2206811606884003,15.86613464355469,21.04437637329102,11.24429321289062,2,1
1562614343.709755,246,0,309607.1529412917,-0.9146385883263688,1.341034320948047,-0.2554532696342097,0.2853343784809113,0.08395705372095108,-1.903124213218689,0.01589733362197876,0.3031388521194458,-0.05268311500549316,2,0.1825905442237854,0.5970620512962341,-0.4141509830951691,0.6623116135597229,0.9421223402023315,0.2526839971542358,-0.2203551977872849,14.99345016479492,22.19474983215332,11.52874755859375,2,1
1562614343.724662,247,0,309607.1878832917,-0.9442031763100099,1.349193860027366,-0.3197323431241392,0.2693472802639008,0.5953938364982605,-2.126764059066772,0.08855515718460083,0.3995128273963928,-0.04702043533325195,2,0.1696934551000595,0.6057038307189941,-0.4391686022281647,0.6414499878883362,0.9261054992675781,0.3143124878406525,-0.2086540013551712,13.18232727050781,25.02114486694336,11.64117431640625,2,1
1562614343.758286,248,0,309607.2228562917,-0.9570665215124824,1.356351746944058,-0.4036310121851301,-0.3889204561710358,0.1572982966899872,-2.495145559310913,0.02793514728546143,0.1116354167461395,-0.0866432785987854,2,0.144469141960144,0.6174760460853577,-0.4629347324371338,0.6193089485168457,0.8985764384269714,0.392760157585144,-0.195703998208046,10.91107368469238,27.7522087097168,12.24114990234375,2,1
1562614343.790091,249,0,309607.2577682917,-0.9620025144248764,1.358676069172564,-0.4850440165926151,-0.2741989195346832,0.2030014097690582,-2.112879514694214,-0.007497012615203857,-0.3168806731700897,-0.04975765943527222,2,0.1165413856506348,0.6271312236785889,-0.4831777215003967,0.5997198820114136,0.864826500415802,0.4662472903728485,-0.1862490624189377,8.275650024414062,30.08986663818359,12.54635620117188,2,1
1562614343.824184,250,0,309607.2927422917,-0.9800779610865652,1.364082353773879,-0.5435194107654264,0.2956809401512146,0.4773446917533875,-1.538602948188782,-0.0491594672203064,-0.4351237416267395,-0.05251157283782959,2,0.1019519567489624,0.6338547468185425,-0.5012558102607727,0.5801522731781006,0.8376725912094116,0.517151415348053,-0.1756679117679596,7.101133346557617,31.21581649780273,12.951904296875,2,1
1562614343.870671,251,0,309607.3276542917,-1.010962236866374,1.359181008129808,-0.5850388492776737,0.5340123176574707,0.2347851693630219,-1.240331768989563,-0.07063192129135132,-0.3620055913925171,-0.03108406066894531,2,0.09514878690242767,0.6351320743560791,-0.5192136764526367,0.56388920545578,0.8150933384895325,0.5522317886352539,-0.1751079112291336,5.153373718261719,32.73085784912109,12.7093505859375,2,1
1562614343.889916,252,0,309607.3626272917,-1.039588968745016,1.345998755129731,-0.6245103194734829,0.3099778890609741,0.00796801783144474,-1.248649835586548,0.02010703086853027,-0.3088886141777039,0.01787114143371582,2,0.08614642918109894,0.6341619491577148,-0.5358167290687561,0.5507429242134094,0.790837824344635,0.5847001075744629,-0.1808348298072815,3.697036743164062,33.77368927001953,12.45220947265625,2,1
1562614343.922427,253,0,309607.3975692917,-1.054083980106372,1.333331708883605,-0.6622563799120054,-0.05877910181879997,-0.1600006222724915,-1.032759547233582,0.1893973350524902,-0.2856206893920898,0.008646845817565918,2,0.07330217212438583,0.6339331269264221,-0.5475685596466064,0.5412246584892273,0.7664763927459717,0.6148977875709534,-0.1855111569166183,2.253326416015625,34.77722930908203,12.08560180664062,2,1
1562614343.956932,254,0,309607.3975692917,-1.054083980106372,1.333331708883605,-0.6622563799120054,-0.05877910181879997,-0.1600006222724915,-1.032759547233582,0.1893973350524902,-0.2856206893920898,0.008646845817565918,2,0.07330217212438583,0.6339331269264221,-0.5475685596466064,0.5412246584892273,0.7664763927459717,0.6148977875709534,-0.1855111569166183,2.253326416015625,34.77722930908203,12.08560180664062,2,1
1562614343.987737,255,0,309607.4325432917,-1.050742670635565,1.331525388136772,-0.6925879294668472,-0.4061233699321747,-0.08700872957706451,-0.6943535804748535,0.2730073928833008,-0.3051194548606873,-0.03983861207962036,2,0.06045596301555634,0.6365140080451965,-0.5523844957351685,0.5348517894744873,0.7476711869239807,0.638530969619751,-0.1823899894952774,1.042732238769531,35.61663055419922,12.41885375976562,2,1
1562614344.030625,256,0,309607.4674552917,-1.029105984070437,1.339469751569107,-0.7120312201757972,-0.6511997580528259,-0.2476208955049515,-0.2661775946617126,0.346704363822937,-0.298859179019928,-0.1702463626861572,2,0.04848571866750717,0.640988826751709,-0.5499916672706604,0.5331900119781494,0.7368711829185486,0.6533728241920471,-0.1735649108886719,0.6587104797363281,35.55861663818359,12.578369140625,2,1
1562614344.053882,257,0,309607.5024282917,-1.011609900540793,1.341770538363924,-0.7175624276829397,-0.251312643289566,-0.2530325651168823,0.007083446253091097,0.450377881526947,-0.1187564134597778,-0.1973322033882141,2,0.04143716394901276,0.6424639821052551,-0.5462984442710876,0.5357993841171265,0.7337377071380615,0.6575501561164856,-0.1710459887981415,0.4646720886230469,35.50759887695312,13.36553955078125,2,1
1562614344.087642,258,0,309607.5373702917,-1.010169382928515,1.342303290099865,-0.71582820362709,0.06115042045712471,0.117953896522522,0.09893094748258591,0.4625133872032166,-0.1213700771331787,-0.1702583432197571,2,0.04176777228713036,0.642494261264801,-0.5455747246742249,0.5364745855331421,0.7349385619163513,0.6562425494194031,-0.1709131598472595,0.6196975708007812,35.14206314086914,13.50436401367188,2,1
1562614344.120094,259,0,309607.5723132917,-1.031403495030883,1.340868666004061,-0.7045452522272437,0.8337461352348328,0.5313805937767029,0.2691127955913544,0.549315869808197,0.03557693958282471,-0.1467605829238892,2,0.05239787325263023,0.6406500935554504,-0.5491731762886047,0.5340700745582581,0.7418550848960876,0.6476874351501465,-0.1736438423395157,0.5729579925537109,35.02278518676758,13.418701171875,2,1
1562614344.153744,260,0,309607.6072562917,-1.073808014598947,1.346054189756616,-0.6880310622071609,0.9126536250114441,1.05275297164917,0.2370055466890335,0.3682539463043213,-0.08950906991958618,-0.06188499927520752,2,0.07353435456752777,0.639151930809021,-0.5571685433387756,0.5250150561332703,0.7530708312988281,0.6350173950195312,-0.1721550226211548,0.1877517700195312,35.01661682128906,13.07095336914062,2,1
1562614344.19078,261,0,309607.6422292917,-1.082751146196849,1.359690073319067,-0.6710734962626064,-0.03113655745983124,0.06126623600721359,0.6176870465278625,0.1912037134170532,-0.3481534719467163,-0.1316277980804443,2,0.08644770830869675,0.6406832337379456,-0.5558022260665894,0.5226238965988159,0.7657684087753296,0.6218270659446716,-0.1641035825014114,0.3874778747558594,35.30184936523438,13.13290405273438,2,1
1562614344.219172,262,0,309607.6771671667,-1.06379765341895,1.344196942977373,-0.6408638825408409,-0.3380160331726074,-1.14129626750946,1.032195091247559,0.3338118195533752,0.02943933010101318,-0.04281353950500488,2,0.08728313446044922,0.6343013048171997,-0.5456884503364563,0.5406179428100586,0.78108811378479,0.5978881120681763,-0.1800870150327682,1.214530944824219,34.63859558105469,13.46963500976562,2,1
1562614344.271169,263,0,309607.7121401667,-1.029737603444122,1.31603725651568,-0.6125283341046637,-0.6952933073043823,-1.387783050537109,0.9277412891387939,0.2956445217132568,0.06680983304977417,0.1137128472328186,2,0.07950539141893387,0.6249648332595825,-0.5319541692733765,0.5657938718795776,0.7917889952659607,0.5749379992485046,-0.2061956971883774,2.945762634277344,33.92086029052734,13.48507690429688,2,1
1562614344.28537,264,0,309607.7470831667,-0.9908517050298035,1.300855576798802,-0.5851870892296075,-0.5920805931091309,-0.8249469995498657,1.105253458023071,0.1813660264015198,-0.173943042755127,0.2059913873672485,2,0.07369063049554825,0.6192080974578857,-0.5159168839454651,0.587350606918335,0.8034209609031677,0.5523553490638733,-0.2223020493984222,4.935512542724609,32.70917129516602,13.22857666015625,2,1
1562614344.317723,265,0,309607.7820561667,-0.9607292208790464,1.302812221918246,-0.5371213131836263,-0.2111065834760666,-0.2158004194498062,1.753973007202148,0.09329515695571899,-0.2140767574310303,0.1772254705429077,2,0.08300270885229111,0.6159217357635498,-0.4969781935214996,0.6056100726127625,0.8285179138183594,0.5116648077964783,-0.2275019288063049,5.80975341796875,32.1683349609375,13.61593627929688,2,1
1562614344.351388,266,0,309607.8169681667,-0.935119511267112,1.309315087283034,-0.4709202901740666,-0.1105134040117264,-0.20356585085392,2.096120119094849,-0.04779690504074097,-0.1129341423511505,0.09362488985061646,2,0.1016620695590973,0.6119463443756104,-0.4744646549224854,0.6245555877685547,0.8608591556549072,0.4537065923213959,-0.2303729951381683,8.152727127075195,30.3341236114502,13.70196533203125,2,1
1562614344.38322,267,0,309607.8519411667,-0.9103058713982007,1.307938146112106,-0.3991083907026665,-0.04865509644150734,-0.3996497094631195,2.173687934875488,-0.09104084968566895,-0.01411533355712891,0.089732825756073,2,0.1208047792315483,0.6047281622886658,-0.4502914547920227,0.6457148790359497,0.8897586464881897,0.3885969519615173,-0.2394201159477234,10.59135246276855,27.90593719482422,13.83413696289062,2,1
1562614344.430894,268,0,309607.8868531667,-0.8942931680775495,1.302998452754743,-0.3211252580752217,0.3224235475063324,-0.2085343301296234,2.312362432479858,-0.08156704902648926,0.1402251124382019,0.1362464427947998,2,0.1441934853792191,0.5946993231773376,-0.426819920539856,0.665857195854187,0.915058970451355,0.3156344890594482,-0.2510819137096405,12.90126419067383,25.29013252258301,13.56478881835938,2,1
1562614344.448985,269,0,309607.9218261667,-0.8908747132103521,1.305746820810225,-0.2384378167225606,0.6224969029426575,0.1931830942630768,2.275076627731323,-0.1360381841659546,0.2908751964569092,0.1522684097290039,2,0.174615204334259,0.5850099325180054,-0.4050154089927673,0.6806141138076782,0.937775731086731,0.2361849248409271,-0.2545458078384399,14.8759880065918,22.2874870300293,13.14453125,2,1
1562614344.482973,270,0,309607.9567691667,-0.8920578440590057,1.317203560560721,-0.1603287296643153,0.5571944117546082,0.3781573176383972,2.065407752990723,-0.2216147780418396,0.4335976243019104,0.1176322102546692,2,0.2060313820838928,0.5776834487915039,-0.3842800557613373,0.6900447010993958,0.9556022882461548,0.1596427261829376,-0.2476658076047897,15.83507537841797,20.80607032775879,13.334228515625,2,1
1562614344.515491,271,0,309607.9567691667,-0.8920578440590057,1.317203560560721,-0.1603287296643153,0.5571944117546082,0.3781573176383972,2.065407752990723,-0.2216147780418396,0.4335976243019104,0.1176322102546692,2,0.2060313820838928,0.5776834487915039,-0.3842800557613373,0.6900447010993958,0.9556022882461548,0.1596427261829376,-0.2476658076047897,15.83507537841797,20.80607032775879,13.334228515625,2,1
1562614344.54893,272,0,309607.9917421667,-0.8903810410706579,1.328244958831123,-0.09611331992387023,0.3116778135299683,0.2466080039739609,1.617164015769958,-0.2853920459747314,0.5335017442703247,0.08149558305740356,2,0.2309792935848236,0.5719377398490906,-0.3654345571994781,0.6971322298049927,0.966248095035553,0.09596540778875351,-0.2390715777873993,17.22604370117188,18.1898193359375,13.75958251953125,2,1
1562614344.591062,273,0,309608.0266541667,-0.885982539689967,1.330839863914475,-0.05277714391549065,0.113608755171299,-0.01195603329688311,1.005432844161987,-0.2800757884979248,0.6930339336395264,0.03995877504348755,2,0.245795264840126,0.5664979815483093,-0.3517962992191315,0.7034943103790283,0.96999591588974,0.05275264754891396,-0.2373294532299042,18.06794357299805,16.32991790771484,13.68414306640625,2,1
1562614344.614773,274,0,309608.0616271667,-0.8843351851196559,1.328631076670254,-0.03752895333224368,0.0275449063628912,-0.07157163321971893,0.1124526038765907,-0.3007559180259705,0.7174069881439209,0.04830819368362427,2,0.2504100203514099,0.5634506344795227,-0.3472981750965118,0.706542432308197,0.9701374769210815,0.0375201441347599,-0.2396364063024521,18.68621444702148,15.68440818786621,13.862060546875,2,1
1562614344.646728,275,0,309608.0965401667,-0.8874490830066218,1.327346769721954,-0.05228303320030158,-0.00042392173781991,-0.0178702138364315,-0.7222511768341064,-0.248016357421875,0.7372437715530396,0.007188260555267334,2,0.2457723617553711,0.5650085806846619,-0.352606326341629,0.704293966293335,0.9691860675811768,0.05225921794772148,-0.2407225072383881,18.50733947753906,15.66444969177246,13.90463256835938,2,1
1562614344.680867,276,0,309608.1315131667,-0.9117842531989179,1.333802187104775,-0.09963359254324707,0.5247581005096436,0.3841407895088196,-2.002408027648926,-0.2027377486228943,0.8360131978988647,0.03572767972946167,2,0.2368580251932144,0.5719174146652222,-0.3731603026390076,0.6910572648048401,0.9672273993492126,0.09946883469820023,-0.2336174994707108,17.99540328979492,17.39438247680664,14.090087890625,2,1
1562614344.712644,277,0,309608.1664551667,-0.9444881118039121,1.338045825530185,-0.1933504100215858,0.03265710920095444,0.1158711463212967,-3.142593383789062,-0.1533809900283813,0.3528429269790649,0.003655612468719482,2,0.2133824229240417,0.5841999650001526,-0.4084731936454773,0.6680777668952942,0.9549040198326111,0.1921479403972626,-0.2263566851615906,16.12768936157227,20.75676536560059,14.40902709960938,2,1
1562614344.750007,278,0,309608.2014281667,-0.9609792445795855,1.329868103353781,-0.2984137513702436,-0.2934886813163757,-0.1626287847757339,-2.847369432449341,0.1101582646369934,0.1755888760089874,-0.02850133180618286,2,0.1782823801040649,0.5951352715492249,-0.4410357475280762,0.6477012038230896,0.92819744348526,0.2940044403076172,-0.2280588001012802,13.5771656036377,24.79215049743652,14.62713623046875,2,1
1562614344.778505,279,0,309608.2363411667,-0.9796957670685404,1.323121591938969,-0.3917469383899634,-0.1871724873781204,0.01143540069460869,-2.757468700408936,0.3095224499702454,0.2825037240982056,-0.05990409851074219,2,0.1480129957199097,0.6039891242980957,-0.4696415364742279,0.6266786456108093,0.8960402607917786,0.3818036019802094,-0.2265785783529282,11.06544876098633,28.41317176818848,14.73223876953125,2,1
1562614344.825279,280,0,309608.2713141667,-0.9925627180081384,1.31244548192226,-0.492839962571069,-0.405987411737442,-0.1885300129652023,-2.892697334289551,0.3565254211425781,0.02262547612190247,-0.06428498029708862,2,0.1117889285087585,0.6123417019844055,-0.4967412650585175,0.6048049926757812,0.8517549633979797,0.4731297791004181,-0.2250817567110062,9.670356750488281,30.04941177368164,14.8896484375,2,1
1562614344.844455,281,0,309608.3062261667,-1.022194100722594,1.305063083502685,-0.5809705383776953,0.3392645418643951,0.5649018883705139,-2.384836673736572,0.342290461063385,-0.3655831813812256,0.04657173156738281,2,0.08606871962547302,0.6187305450439453,-0.5240471363067627,0.578912079334259,0.8065893054008484,0.5488355159759521,-0.2195293754339218,6.249181747436523,32.82798004150391,15.234619140625,2,1
1562614344.878372,282,0,309608.3411991667,-1.073467238176431,1.311579207284631,-0.6334815676473208,0.9518325328826904,1.17164671421051,-1.413544297218323,0.2317901253700256,-0.5518002510070801,0.03878957033157349,2,0.08414322137832642,0.6241995096206665,-0.5483279228210449,0.5501195192337036,0.7790448069572449,0.5919544100761414,-0.2065897881984711,3.212526321411133,35.0167236328125,15.08203125,2,1
1562614344.913346,283,0,309608.3761421667,-1.124465284899554,1.315111555462754,-0.656267686222386,0.8959639072418213,0.7862910628318787,-0.7274984121322632,0.05092692375183105,-0.5253024101257324,0.01778638362884521,2,0.09261097013950348,0.6254892945289612,-0.5660626292228699,0.528922975063324,0.7665185332298279,0.6101641058921814,-0.2003726959228516,1.277082443237305,36.33343505859375,14.62454223632812,2,1
1562614344.944333,284,0,309608.4111151667,-1.159347195036537,1.308440661241216,-0.6710310828353117,0.5027258992195129,0.2576154470443726,-0.5563320517539978,0.02607518434524536,-0.4500188827514648,0.07114976644515991,2,0.0961514413356781,0.6238536834716797,-0.5780510306358337,0.5171253085136414,0.7563819289207458,0.6217938661575317,-0.2031229585409164,0.6418266296386719,36.70603942871094,14.4212646484375,2,1
1562614344.985959,285,0,309608.4460271667,-1.173040562942167,1.30222542776712,-0.6840829006352134,0.02358820661902428,-0.005193741992115974,-0.3739897012710571,0.1084680557250977,-0.3632490038871765,0.08853775262832642,2,0.09380768984556198,0.6231979131698608,-0.5840394496917725,0.5115881562232971,0.7472161054611206,0.6319625377655029,-0.2056489586830139,-0.2520847320556641,37.25389862060547,13.74786376953125,2,1
1562614345.010181,286,0,309608.4810001667,-1.165606201392775,1.304009447260308,-0.6961974721910762,-0.3935929238796234,-0.1396504342556,-0.2359607368707657,0.1772493124008179,-0.304064154624939,0.0222439169883728,2,0.08754255622625351,0.6254559755325317,-0.5840433835983276,0.5099356770515442,0.7401419281959534,0.6413047313690186,-0.2022822499275208,-0.5837688446044922,37.63248825073242,14.02566528320312,2,1
1562614345.042191,287,0,309608.5159431667,-1.136955114054403,1.311854524341286,-0.7052943008970907,-0.8116621375083923,-0.3900189697742462,0.01873983442783356,0.2065780758857727,-0.373532772064209,-0.08423757553100586,2,0.07746956497430801,0.6296940445899963,-0.5778955817222595,0.5133426785469055,0.7360363006591797,0.6482579708099365,-0.1949677467346191,-0.9832973480224609,37.67679214477539,14.86648559570312,2,1
1562614345.075981,288,0,309608.5508851667,-1.100615995931202,1.318998695992518,-0.7037966790682977,-0.6300776600837708,-0.493592232465744,0.3051780462265015,0.2831218242645264,-0.261414647102356,-0.1417650580406189,2,0.06860263645648956,0.6327089667320251,-0.567973792552948,0.5218992233276367,0.7383496165275574,0.6471168994903564,-0.1899460852146149,-0.3350448608398438,37.24109268188477,15.81753540039062,2,1
1562614345.108916,289,0,309608.5508851667,-1.100615995931202,1.318998695992518,-0.7037966790682977,-0.6300776600837708,-0.493592232465744,0.3051780462265015,0.2831218242645264,-0.261414647102356,-0.1417650580406189,2,0.06860263645648956,0.6327089667320251,-0.567973792552948,0.5218992233276367,0.7383496165275574,0.6471168994903564,-0.1899460852146149,-0.3350448608398438,37.24109268188477,15.81753540039062,2,1
1562614345.151053,290,0,309608.5858281667,-1.086491108293514,1.316456044698252,-0.6938147817937194,-0.0356312170624733,-0.192441388964653,0.2594642639160156,0.4124017953872681,0.007961750030517578,-0.1192602515220642,2,0.0671309232711792,0.6314857006072998,-0.562597930431366,0.5293418765068054,0.7440791130065918,0.6394746899604797,-0.1934385001659393,0.0726776123046875,37.05338287353516,16.15481567382812,2,1
1562614345.173867,291,0,309608.6208011667,-1.094687806251194,1.317363273777106,-0.684657135604176,0.4068179428577423,0.3705263435840607,0.1999917328357697,0.3918032646179199,-0.04978978633880615,-0.07402586936950684,2,0.07337746769189835,0.6304791569709778,-0.563115119934082,0.5291627049446106,0.7498920559883118,0.6324074268341064,-0.194223552942276,0.5721340179443359,37.00638961791992,16.32943725585938,2,1
