loggingTime,loggingSample,identifierForVendor,motionTimestamp_sinceReboot,motionYaw,motionRoll,motionPitch,motionRotationRateX,motionRotationRateY,motionRotationRateZ,motionUserAccelerationX,motionUserAccelerationY,motionUserAccelerationZ,motionAttitudeReferenceFrame,motionQuaternionX,motionQuaternionY,motionQuaternionZ,motionQuaternionW,motionGravityX,motionGravityY,motionGravityZ,motionMagneticFieldX,motionMagneticFieldY,motionMagneticFieldZ,motionMagneticFieldCalibrationAccuracy,label
1562614115.472673,1,0,309378.8999505417,0.09222733190070888,0.02266878982760921,0.4512786824231578,-0.2794145047664642,0.09443198144435883,-0.09429612755775452,-0.0005141627043485641,-0.06078699231147766,0.05835926532745361,2,0.222968116402626,0.0213477723300457,0.04745901748538017,0.9734357595443726,0.02039767429232597,-0.4361165761947632,-0.8996589779853821,78.09128570556641,50.06621551513672,50.82196044921875,0,2
1562614115.492108,2,0,309378.9348925417,0.08471284182663341,0.02029108715661558,0.4462662166573022,-0.08306963741779327,-0.2321557104587555,-0.2725597321987152,0.02793581783771515,-0.05652052164077759,0.07225567102432251,2,0.2206573486328125,0.01925458572804928,0.04353490099310875,0.9741890430450439,0.01830262131989002,-0.431600421667099,-0.9018791913986206,78.07976531982422,51.25363540649414,50.83612060546875,0,2
1562614115.523682,3,0,309378.9698665417,0.07446198660067554,0.01700634435805894,0.4438616278296463,-0.07899101823568344,-0.2172806560993195,-0.2000497430562973,-0.00199771486222744,-0.005578368902206421,0.03658914566040039,2,0.2196442484855652,0.01648163050413132,0.03817851468920708,0.9746934175491333,0.01535769086331129,-0.4294300973415375,-0.9029695391654968,77.38834381103516,53.756103515625,50.59341430664062,0,2
1562614115.55797,4,0,309379.0047785417,0.07184158352033689,0.01510362306430324,0.4398577810091356,-0.1090618073940277,-0.03458353132009506,-0.04442062973976135,0.02310395427048206,-0.01741209626197815,0.02533066272735596,2,0.2177485972642899,0.01519966498017311,0.03669345378875732,0.9751964807510376,0.01366542372852564,-0.4258107841014862,-0.9047090411186218,76.90128326416016,54.86356735229492,50.87112426757812,0,2
1562614115.589641,5,0,309379.0397515417,0.06944938168442702,0.01256435078057276,0.437156680731343,-0.08017802983522415,-0.142805352807045,-0.07067354768514633,0.02455092594027519,-0.02903163433074951,0.02396267652511597,2,0.2164941132068634,0.01365707628428936,0.0352524071931839,0.9755516052246094,0.01138248853385448,-0.4233652353286743,-0.9058875441551208,76.44374847412109,55.30293273925781,51.94381713867188,0,2
1562614115.623501,6,0,309379.0746935417,0.06662278939654176,0.01016579147564087,0.4368146432479491,0.05043639242649078,-0.06598806381225586,-0.06492981314659119,0.01798213459551334,-0.01531925797462463,0.0302053689956665,2,0.2163867950439453,0.01217569224536419,0.03361432999372482,0.9756528735160828,0.009211104363203049,-0.4230553507804871,-0.9060570001602173,76.16747283935547,55.35826873779297,52.48843383789062,0,2
1562614115.655526,7,0,309379.1096675417,0.0674547132315515,0.007665322711503341,0.4403428632979517,0.08979737758636475,-0.07340576499700546,0.07956372201442719,0.01450990792363882,-0.03613772988319397,0.015114426612854,2,0.2181449979543686,0.01110250595957041,0.03374326229095459,0.975269615650177,0.006934025790542364,-0.4262496531009674,-0.9045789837837219,75.93785858154297,55.15420150756836,53.52926635742188,0,2
1562614115.68946,8,0,309379.1445795417,0.0691723516827952,0.005328443115154649,0.4412755492206393,0.006694769952446222,-0.02621934562921524,-0.001479201251640916,0.007244809530675411,-0.05015501379966736,0.01949042081832886,2,0.2186304330825806,0.01016579568386078,0.03432361409068108,0.9751508831977844,0.004817996174097061,-0.4270931780338287,-0.9041947722434998,75.84612274169922,54.41075134277344,53.68112182617188,0,2
1562614115.721377,9,0,309379.1795525417,0.06771825861409561,0.005433973665159496,0.4426469824481285,0.03604777157306671,-0.03186629712581635,-0.03525402024388313,-0.002826803363859653,-0.02041009068489075,0.06098616123199463,2,0.2193046659231186,0.01008053496479988,0.03362289071083069,0.9750247597694397,0.00491022877395153,-0.4283328354358673,-0.9036076664924622,75.67078399658203,54.71741485595703,54.5098876953125,0,2
1562614115.755383,10,0,309379.2144945417,0.06890687627269036,0.0007588992139434557,0.4418123757772965,-0.06468554586172104,-0.1751360893249512,0.06749642640352249,-0.0005191639065742493,-0.03146517276763916,0.03988784551620483,2,0.2189710736274719,0.007917741313576698,0.03369263559579849,0.9751173257827759,0.0006860282737761736,-0.4275785088539124,-0.9039779305458069,75.31375885009766,54.25465393066406,54.6060791015625,0,2
1562614115.787285,11,0,309379.2494685417,0.07018279181502529,-0.00265268320471755,0.4387681521287474,-0.08091382682323456,-0.02297771908342838,-0.001723833614960313,-0.003332461230456829,-0.03799194097518921,0.01849442720413208,2,0.2175397574901581,0.006341560743749142,0.03395478427410126,0.9754400253295898,-0.002401406643912196,-0.4248246252536774,-0.9052724838256836,75.21646881103516,53.97187423706055,54.65582275390625,0,2
1562614115.821266,12,0,309379.2843805417,0.07079255564137012,-0.005553471184658567,0.4389242954079987,0.01854947209358215,-0.1158576011657715,0.04868162795901299,0.004637495614588261,-0.03617191314697266,0.01509076356887817,2,0.2176634073257446,0.004995863884687424,0.03393581137061119,0.9754209518432617,-0.005027028266340494,-0.4249659776687622,-0.9051953554153442,75.42642974853516,53.87713623046875,53.99041748046875,0,2
1562614115.863,13,0,309379.3193535417,0.07276856708785792,-0.008913015570985701,0.4382822844543312,-0.03726110979914665,-0.05277396738529205,0.03226199746131897,-0.004598032683134079,-0.04783186316490173,0.01558589935302734,2,0.2174035757780075,0.003560770535841584,0.03453778475522995,0.9754641056060791,-0.008070467971265316,-0.424384742975235,-0.9054459929466248,75.14194488525391,52.96135711669922,52.96401977539062,0,2
1562614115.88735,14,0,309379.3542955417,0.07357821759819512,-0.01199408326850516,0.439319395346035,0.06212542206048965,-0.07927826792001724,0.01256281044334173,-0.01336053386330605,-0.04399240016937256,0.01879286766052246,2,0.2179614305496216,0.00216535571962595,0.03459053486585617,0.975341796875,-0.01085488125681877,-0.4253235757350922,-0.9049762487411499,75.10123443603516,52.94895935058594,52.22100830078125,0,2
1562614115.919632,15,0,309379.3892695417,0.07287062393562918,-0.01329903326943208,0.4403990627527279,-0.006932903081178665,-0.06038101017475128,-0.02332800440490246,-0.01033771317452192,-0.0467982292175293,0.03075343370437622,2,0.2185109257698059,0.001471820520237088,0.03409544751048088,0.9752375483512878,-0.01202970650047064,-0.4263004958629608,-0.9045016169548035,75.41693878173828,52.70112609863281,51.70614624023438,0,2
1562614115.953182,16,0,309379.4241815417,0.07117003786169185,-0.01501217942423703,0.4369543360710946,-0.1674792170524597,-0.04338474199175835,-0.055952999740839,-0.01137322746217251,-0.04953980445861816,0.0251011848449707,2,0.2168606221675873,0.0003880154399666935,0.03310495615005493,0.9756410121917725,-0.01360119506716728,-0.4231819212436676,-0.9059426188468933,75.36942291259766,53.11959457397461,51.151611328125,0,2
1562614115.985302,17,0,309379.4241815417,0.07117003786169185,-0.01501217942423703,0.4369543360710946,-0.1674792170524597,-0.04338474199175835,-0.055952999740839,-0.01137322746217251,-0.04953980445861816,0.0251011848449707,2,0.2168606221675873,0.0003880154399666935,0.03310495615005493,0.9756410121917725,-0.01360119506716728,-0.4231819212436676,-0.9059426188468933,75.36942291259766,53.11959457397461,51.151611328125,0,2
1562614116.028719,18,0,309379.459155125,0.06926160777711823,-0.01427473548916055,0.4318510267629379,-0.1020783111453056,-0.01113650109618902,-0.03327043354511261,-0.006335298530757427,-0.04094639420509338,0.02843660116195679,2,0.2143590152263641,0.0004506434488575906,0.0322907418012619,0.9762209057807922,-0.01296376809477806,-0.4185526072978973,-0.9081000089645386,75.29442596435547,54.68581008911133,50.25238037109375,0,2
1562614116.050894,19,0,309379.494067125,0.06874359916904441,-0.01529558427047884,0.4316261512435038,-0.002144385129213333,-0.03383169323205948,-0.004493511747568846,-0.005893783643841743,-0.03443706035614014,0.02381742000579834,2,0.2142656743526459,-0.0001071274455171078,0.03193014115095139,0.9762534499168396,-0.01389223337173462,-0.4183483719825745,-0.9081804156303406,74.74367523193359,56.25601196289062,49.8568115234375,0,2
1562614116.084912,20,0,309379.529040125,0.06816822305333999,-0.01527454495916524,0.4306932081670968,-0.04353015869855881,0.00719483382999897,-0.02512294054031372,-0.003724945709109306,-0.02756479382514954,0.03809356689453125,2,0.2138099521398544,-0.0001747872011037543,0.03165841847658157,0.9763621091842651,-0.0138790812343359,-0.4175007939338684,-0.9085705280303955,74.06522369384766,57.71317291259766,50.14688110351562,0,2
1562614116.117029,21,0,309379.563983125,0.06723407626179924,-0.01466581296805093,0.4278863308701652,-0.1200346797704697,0.01671510748565197,-0.0211773943156004,-0.01106707565486431,-0.03958097100257874,0.03072673082351685,2,0.2124300003051758,-2.575336657173466e-05,0.03128755465149879,0.9766752123832703,-0.01334313582628965,-0.4149486124515533,-0.9097470045089722,73.86812591552734,58.42002487182617,50.07363891601562,0,2
1562614116.150959,22,0,309379.598956125,0.06549712626870613,-0.01361079430123544,0.4236220872176329,-0.09502056241035461,0.0174005962908268,-0.05502535030245781,0.002796772867441177,-0.0422646701335907,0.02374529838562012,2,0.210331067442894,0.0002336769975954667,0.0305803008377552,0.9771518111228943,-0.01240729913115501,-0.4110650718212128,-0.9115215539932251,73.95441436767578,58.99411773681641,49.54129028320312,0,2
1562614116.20326,23,0,309379.633868125,0.06391807606274841,-0.01270060254117169,0.4240075421221109,0.05080198869109154,-0.003411734476685524,-0.01703102327883244,0.01052408758550882,-0.0352293848991394,0.02008795738220215,2,0.2105059027671814,0.0005186013295315206,0.02990203164517879,0.9771350622177124,-0.01157562155276537,-0.4114164113998413,-0.9113739728927612,72.92862701416016,59.9745979309082,49.54067993164062,0,2
1562614116.217285,24,0,309379.668841125,0.06250515327086284,-0.01034939764707891,0.4243232505944564,-0.04184038937091827,0.0837886780500412,-0.05141856893897057,0.02018712088465691,-0.04339450597763062,0.01041531562805176,2,0.2106259763240814,0.001523627899587154,0.0294573325663805,0.9771215915679932,-0.009431418962776661,-0.4117041528224945,-0.9112687706947327,71.68329620361328,60.6788215637207,51.08172607421875,0,2
1562614116.248892,25,0,309379.703784125,0.06012142114576629,-0.007689507165495415,0.4236730873549948,-3.158766776323318e-05,0.04048594832420349,-0.07085211575031281,0.02127132378518581,-0.03837257623672485,0.02454477548599243,2,0.2102721780538559,0.002562336623668671,0.02857608906924725,0.9772217869758606,-0.007009570486843586,-0.4111115634441376,-0.9115580916404724,70.62215423583984,61.7383918762207,53.2454833984375,0,2
1562614116.282736,26,0,309379.738757125,0.05703007064342865,-0.003510149339295938,0.4239658958184824,0.01865049824118614,0.09825471043586731,-0.07027889043092728,0.02235373482108116,-0.02997258305549622,0.03640848398208618,2,0.2103619128465652,0.004283617250621319,0.02750380523502827,0.9772273302078247,-0.00319937034510076,-0.4113784432411194,-0.9114590287208557,70.34590911865234,62.25587463378906,54.26724243164062,0,2
1562614116.314786,27,0,309379.773669125,0.05534576726804784,-0.0003970990745740543,0.4262083594699897,0.07125847041606903,0.0652402937412262,-0.03899652138352394,0.01978653110563755,-0.02926942706108093,0.03176474571228027,2,0.2114192694425583,0.005657942499965429,0.02700147032737732,0.9770060181617737,-0.0003615745226852596,-0.4134213328361511,-0.9105397462844849,69.74031829833984,63.20255661010742,56.29885864257812,0,2
1562614116.353929,28,0,309379.808642125,0.05345035939608442,0.003718308247239602,0.4282989106777074,0.04698232933878899,0.08327788114547729,-0.04100914672017097,0.01744096353650093,-0.02090972661972046,0.0483318567276001,2,0.212391585111618,0.007494889199733734,0.02650651521980762,0.9767963290214539,0.003382439026609063,-0.4153239727020264,-0.9096672534942627,69.89838409423828,64.04804229736328,58.56887817382812,0,2
1562614116.380497,29,0,309379.843585125,0.05350227115752935,0.007764500902240811,0.4298961250298155,0.05387219786643982,0.1785008013248444,0.01313010137528181,0.00988447479903698,-0.009582877159118652,0.02928894758224487,2,0.2131173014640808,0.009496747516095638,0.02695998176932335,0.9766084551811218,0.007057930808514357,-0.4167763888835907,-0.9089816808700562,69.23029327392578,64.21116638183594,61.06671142578125,0,2
1562614116.432187,30,0,309379.878558125,0.05542180102062203,0.01324245228008292,0.4344175959339805,0.1779433786869049,0.1319149285554886,0.07323984801769257,0.02753675729036331,-0.01874646544456482,0.03146016597747803,2,0.2152382433414459,0.01243405416607857,0.02848206274211407,0.9760669469833374,0.01201208028942347,-0.4208821654319763,-0.907035768032074,68.70575714111328,63.5484619140625,64.15374755859375,0,2
1562614116.446282,31,0,309379.913470125,0.05713369200755623,0.01562705115253402,0.4411326570265567,0.1790116280317307,0.09651299566030502,0.03051397018134594,0.01467314176261425,-0.02031588554382324,0.03428530693054199,2,0.2184685468673706,0.01386992167681456,0.02957887947559357,0.9752970337867737,0.01413047686219215,-0.4269639551639557,-0.9041582345962524,68.47054290771484,63.13466644287109,65.486328125,0,2
1562614116.480401,32,0,309379.948443125,0.05670710076100201,0.01837157124019312,0.4450907794841988,0.08191389590501785,0.06047483533620834,-0.03961940854787827,0.0202149897813797,-0.03750213980674744,0.0463225245475769,2,0.2203609496355057,0.01521242037415504,0.02967602573335171,0.9748481512069702,0.01658072508871555,-0.4305398166179657,-0.9024192690849304,68.40363311767578,62.30064392089844,68.45089721679688,0,2
1562614116.512203,33,0,309379.983386125,0.05547441640858761,0.0196729567886016,0.4471761825499493,0.062229935079813,-0.01545375213027,0.0001019042683765292,0.01373133435845375,-0.03334444761276245,0.05035829544067383,2,0.2213677912950516,0.01573686487972736,0.0292221661657095,0.9746254682540894,0.01773740537464619,-0.4324211180210114,-0.9014973044395447,68.21251678466797,61.08383178710938,70.15908813476562,0,2
1562614116.546176,34,0,309380.018359125,0.05457379451765927,0.01717629963146084,0.4500875616300855,0.05725882947444916,-0.08083276450634003,-0.05463554337620735,0.01542721875011921,-0.02584975957870483,0.03773707151412964,2,0.2228293418884277,0.01445643976330757,0.02851025946438313,0.9743332266807556,0.01546493452042341,-0.4350443780422211,-0.9002761840820312,68.34766387939453,59.65546798706055,71.06076049804688,0,2
1562614116.597438,35,0,309380.018359125,0.05457379451765927,0.01717629963146084,0.4500875616300855,0.05725882947444916,-0.08083276450634003,-0.05463554337620735,0.01542721875011921,-0.02584975957870483,0.03773707151412964,2,0.2228293418884277,0.01445643976330757,0.02851025946438313,0.9743332266807556,0.01546493452042341,-0.4350443780422211,-0.9002761840820312,68.34766387939453,59.65546798706055,71.06076049804688,0,2
1562614116.612187,36,0,309380.053271125,0.05267188059351893,0.01732218629901596,0.4498736208466507,-0.03284123912453651,-0.01894197799265385,-0.0348135232925415,0.01790332980453968,-0.01594129204750061,0.04109334945678711,2,0.222736731171608,0.01431306544691324,0.02759967744350433,0.974382758140564,0.01559788454324007,-0.434851735830307,-0.9003669619560242,68.65522003173828,59.04939270019531,72.10894775390625,0,2
1562614116.64415,37,0,309380.088244125,0.05303793696011728,0.0150435453549782,0.4493701224544806,-0.006490747444331646,-0.08046844601631165,0.02418115362524986,0.0173911452293396,-0.02561169862747192,0.02773493528366089,2,0.2225202620029449,0.01323760766535997,0.02752387337386608,0.974449634552002,0.01354952529072762,-0.4343982636928558,-0.9006189703941345,68.71234893798828,57.92759704589844,73.63015747070312,0,2
1562614116.677943,38,0,309380.123156125,0.05387910055811465,0.01186173436740573,0.4507451878781411,0.06911420822143555,-0.07636052370071411,0.02979040332138538,0.0002332283183932304,-0.0291934609413147,0.04032754898071289,2,0.2232288122177124,0.01179808378219604,0.02757951430976391,0.9743044376373291,0.01067676674574614,-0.4356364011764526,-0.9000594019889832,69.11690521240234,55.89582061767578,73.606201171875,0,2
1562614116.710006,39,0,309380.158130125,0.05520726457635791,0.007169074284376136,0.4537143020137863,0.07347407191991806,-0.1589131951332092,0.04204733669757843,-0.009626749902963638,-0.03567436337471008,0.05097043514251709,2,0.2247327715158463,0.009699033573269844,0.02769869565963745,0.9739784598350525,0.00644369050860405,-0.4383070468902588,-0.8988022208213806,69.40012359619141,53.35761260986328,73.16549682617188,0,2
1562614116.752258,40,0,309380.193072125,0.05594541977381368,0.001527877749671605,0.4530880963929991,-0.07631968706846237,-0.1342733800411224,0.006818355061113834,-0.009706980548799038,-0.04313498735427856,0.04127269983291626,2,0.2245024442672729,0.007026289124041796,0.02742592059075832,0.9740622639656067,0.001373713719658554,-0.4377441108226776,-0.8990985751152039,69.97037506103516,51.34137725830078,72.6201171875,0,2
1562614116.775941,41,0,309380.228045125,0.05593058006072815,-0.00385631145036923,0.4496416854638679,-0.09739913791418076,-0.1573933213949203,0.006775897461920977,-9.258370846509933e-05,-0.02252861857414246,0.03569245338439941,2,0.2228966802358627,0.004354629199951887,0.02682823315262794,0.974463164806366,-0.003472996642813087,-0.4346428513526917,-0.9005962014198303,70.38983917236328,49.79450225830078,71.19329833984375,0,2
1562614116.809964,42,0,309380.262957125,0.05622867894565558,-0.009291636659108753,0.4459769562744285,-0.1291161179542542,-0.1648184955120087,0.01317914761602879,0.01159905176609755,-0.04320132732391357,0.01074475049972534,2,0.2211826592683792,0.001687475596554577,0.02638735435903072,0.974873960018158,-0.008382698521018028,-0.4313394725322723,-0.9021507501602173,71.35021209716797,47.59368133544922,69.5233154296875,0,2
1562614116.84245,43,0,309380.297931125,0.05777914696691921,-0.01527061631542547,0.4428011122990765,-0.0711480900645256,-0.1337638944387436,0.03401497378945351,0.008568046614527702,-0.04843792319297791,-0.006646513938903809,2,0.2197133451700211,-0.001102782553061843,0.02650369331240654,0.9752037525177002,-0.01379730552434921,-0.428472101688385,-0.9034496545791626,72.04314422607422,45.04100799560547,66.71453857421875,0,2
1562614116.875783,44,0,309380.332873125,0.05808547658629269,-0.01838311307244426,0.4432632657259648,0.05955034121870995,-0.06244238466024399,0.009808703325688839,-0.003649566322565079,-0.03999367356300354,0.004887521266937256,2,0.2199800312519073,-0.002579769119620323,0.02630755305290222,0.9751461744308472,-0.01660557650029659,-0.4288896322250366,-0.9032042622566223,73.18109893798828,43.38322830200195,64.6671142578125,0,2
1562614116.914165,45,0,309380.367846125,0.06117903176495616,-0.0232569844401079,0.4467461735258106,0.08805689960718155,-0.1438580751419067,0.09119073301553726,-0.0193873792886734,-0.07174241542816162,-0.01551938056945801,2,0.2217483669519424,-0.004559351596981287,0.02724819257855415,0.9747124910354614,-0.0209725983440876,-0.4320333302021027,-0.9016137719154358,73.43129730224609,41.57929992675781,62.14422607421875,0,2
1562614116.941648,46,0,309380.402758125,0.06043686254736989,-0.02807652069288943,0.4468710998349278,-0.0321226641535759,-0.1500749588012695,-0.08456573635339737,-0.05318454653024673,-0.09656247496604919,-0.04716396331787109,2,0.2218716740608215,-0.006988443899899721,0.02635078132152557,0.9746947288513184,-0.02531618252396584,-0.4321460127830505,-0.9014482498168945,73.41936492919922,40.79752731323242,61.09701538085938,0,2
1562614116.992382,47,0,309380.437732125,0.05363743420463845,-0.03498056122473936,0.447720431149275,0.05909674242138863,-0.3261153101921082,-0.2097909301519394,-0.1189107149839401,-0.1693278253078461,-0.07626211643218994,2,0.2223386615514755,-0.01109485607594252,0.02226123213768005,0.9746522307395935,-0.03152631595730782,-0.4329117834568024,-0.9008848667144775,72.85437774658203,40.40419006347656,56.86483764648438,0,2
1562614117.007619,48,0,309380.472673875,0.05068938544598581,-0.02975862484382374,0.4520690649888838,0.1366365551948547,0.4381573498249054,0.03265434876084328,-0.2843383550643921,-0.1868143379688263,-0.1975398659706116,2,0.2243853807449341,-0.008816750720143318,0.02136113680899143,0.9742264747619629,-0.02676527760922909,-0.436827689409256,-0.8991469144821167,70.78417205810547,40.3388671875,53.16604614257812,0,2
1562614117.039564,49,0,309380.507646875,0.07067805515105358,0.01144641128813836,0.4530032006486458,-0.04151050001382828,1.90334939956665,0.8092446327209473,-0.4010992646217346,-0.2168109714984894,-0.2838364839553833,2,0.2242289334535599,0.01350781042128801,0.03571311756968498,0.9737882018089294,0.01029166392982006,-0.4376677870750427,-0.899077832698822,66.96224212646484,37.75185394287109,57.54385375976562,0,2
1562614117.079262,50,0,309380.542558875,0.1033592300746082,0.06590387136158009,0.467445036580492,0.7353955507278442,1.797999382019043,0.759705662727356,-0.3012766242027283,-0.2882954776287079,-0.1208770275115967,2,0.2295100390911102,0.04396460950374603,0.05784495174884796,0.9705907106399536,0.05879128724336624,-0.4506068825721741,-0.8907845020294189,60.54720306396484,32.12028503417969,66.4300537109375,0,2
1562614117.105479,51,0,309380.577532875,0.1140149938456765,0.1009025507327118,0.510887578885436,1.398520350456238,1.035413265228271,0.290897935628891,-0.2476781904697418,-0.09607189893722534,-0.1518770456314087,2,0.2491632997989655,0.06309247016906738,0.06777932494878769,0.9640243053436279,0.08786910772323608,-0.4889516830444336,-0.8678739666938782,56.61452484130859,30.2414665222168,68.80657958984375,0,2
1562614117.153413,52,0,309380.612474875,0.1424226686734945,0.1394092207712094,0.5654957034106787,1.411849021911621,1.587379336357117,1.236378073692322,-0.1585854738950729,0.07419949769973755,-0.04685449600219727,2,0.2728537619113922,0.08651574701070786,0.08754227310419083,0.9541500210762024,0.1173255294561386,-0.5358344316482544,-0.8361316919326782,47.52873992919922,26.45803833007812,73.22866821289062,0,2
1562614117.171285,53,0,309380.612474875,0.1424226686734945,0.1394092207712094,0.5654957034106787,1.411849021911621,1.587379336357117,1.236378073692322,-0.1585854738950729,0.07419949769973755,-0.04685449600219727,2,0.2728537619113922,0.08651574701070786,0.08754227310419083,0.9541500210762024,0.1173255294561386,-0.5358344316482544,-0.8361316919326782,47.52873992919922,26.45803833007812,73.22866821289062,0,2
1562614117.205227,54,0,309380.647447875,0.2025367201484813,0.1448503465904965,0.5910296877929353,-0.1076411232352257,1.079926133155823,1.752229809761047,0.01665773987770081,0.1259770393371582,0.3540850281715393,2,0.2819824516773224,0.09823556244373322,0.1174257323145866,0.9471255540847778,0.1198588311672211,-0.5572163462638855,-0.8216713666915894,38.79723358154297,19.03725814819336,76.70779418945312,0,2
1562614117.237283,55,0,309380.682359875,0.2414281666467651,0.03882312595385085,0.5770996376038268,-1.05104649066925,-3.194810628890991,0.3076382279396057,-0.1362575590610504,0.4913843274116516,0.3220017552375793,2,0.2801975309848785,0.05273332819342613,0.1209041401743889,0.9508367776870728,0.03252749145030975,-0.5455955862998962,-0.8374170660972595,32.94203948974609,12.98528289794922,63.58538818359375,0,2
1562614117.271108,56,0,309380.717333875,0.2612955780994821,-0.08309298946235201,0.5481730996942688,-0.3312990069389343,-2.94114089012146,0.6293420195579529,0.1456601917743683,0.1562747359275818,0.3419726490974426,2,0.2733384072780609,-0.004412224981933832,0.1141591146588326,0.9551095962524414,-0.07083645462989807,-0.5211288928985596,-0.8505333065986633,27.08472442626953,10.06517028808594,42.48562622070312,0,2
1562614117.313437,57,0,309380.752275875,0.2713901150623849,-0.1567039974541767,0.5529403836425957,0.2188961803913116,-1.06368362903595,-0.09947564452886581,0.1796132922172546,0.2573891878128052,0.3309596180915833,2,0.2798090875148773,-0.03779460489749908,0.1085736975073814,0.9531475901603699,-0.1328074932098389,-0.5251917243003845,-0.8405568599700928,23.83432769775391,8.319839477539062,34.97088623046875,0,2
1562614117.3371,58,0,309380.787218875,0.2345038714957089,-0.1190793531951608,0.5338037964459447,-1.335778951644897,1.252604126930237,-1.221132516860962,0.2306215018033981,0.1743505001068115,0.3559620976448059,2,0.2681838274002075,-0.02620445936918259,0.09705521166324615,0.9581080675125122,-0.1022706851363182,-0.5088115930557251,-0.8547815084457397,22.29737091064453,8.990371704101562,29.40374755859375,0,2
1562614117.369106,59,0,309380.822160875,0.1753361593641403,-0.03190639958670267,0.4764197936884809,-1.671766757965088,1.620738744735718,-1.227268576622009,0.305916041135788,0.2461990416049957,0.3113088607788086,2,0.2363846451044083,0.005214824806898832,0.08132283389568329,0.9682363867759705,-0.02834857255220413,-0.4586006104946136,-0.8881902098655701,26.88756561279297,15.97658538818359,29.42230224609375,0,2
1562614117.402986,60,0,309380.857134875,0.1402125944743096,-0.01892996295563587,0.4085685728421624,-2.430019617080688,-1.066285967826843,-0.7794678807258606,0.5553595423698425,-0.3524704575538635,-0.3123741745948792,2,0.2030081897974014,0.004964658990502357,0.06667385995388031,0.9768918752670288,-0.0173708088696003,-0.397296130657196,-0.9175260663032532,30.69623565673828,22.00620651245117,24.0540771484375,0,2
1562614117.434978,61,0,309380.892046875,0.1272541817794508,-0.0269236827390745,0.3343724952680646,-1.364304780960083,0.1654618829488754,0.06662271916866302,0.5718984007835388,-0.5812807083129883,-0.6180921196937561,2,0.166900709271431,-0.002666894579306245,0.06045636162161827,0.9841148853302002,-0.02542947977781296,-0.3281764686107635,-0.9442740678787231,31.42020416259766,25.51007461547852,19.26715087890625,0,2
1562614117.472225,62,0,309380.927019875,0.1419122597010477,-0.02677796532748361,0.3563487065818642,1.409848690032959,0.02434974536299706,0.4432970583438873,0.2027409374713898,-0.1336015462875366,-0.1707630157470703,2,0.1777054667472839,-0.0005793714080937207,0.06740104407072067,0.9817727208137512,-0.02509268932044506,-0.348854660987854,-0.9368408918380737,32.32939910888672,26.42494964599609,18.82107543945312,0,2
1562614117.500908,63,0,309380.961962875,0.1604848161919765,-0.04753365247420071,0.4040885444352566,1.130265235900879,-0.6657074689865112,0.4931966960430145,0.09427332878112793,0.08760702610015869,0.2219861745834351,2,0.2018363773822784,-0.007125644944608212,0.0737500861287117,0.9766126275062561,-0.04368888959288597,-0.3931808769702911,-0.9184225797653198,31.35520172119141,22.32466506958008,21.15142822265625,0,2
1562614117.558205,64,0,309380.996935875,0.1917499857180944,-0.09995135353417268,0.4095781490811436,-0.3051833510398865,-1.425208568572998,1.044054985046387,0.02624837309122086,0.104618638753891,0.2877077460289001,2,0.2068561464548111,-0.02924335189163685,0.08349861204624176,0.9743630290031433,-0.09153168648481369,-0.398222416639328,-0.9127107262611389,29.17398834228516,19.0337028503418,17.85946655273438,0,2
1562614117.566738,65,0,309381.031847875,0.2407527974321021,-0.1896230324155958,0.3730833025047015,-1.008341789245605,-2.269903421401978,1.623022675514221,0.05968472361564636,0.007664918899536133,0.1093401908874512,2,0.1944638937711716,-0.07018266618251801,0.1000420898199081,0.9732675552368164,-0.1755221784114838,-0.3644883632659912,-0.9145163893699646,24.74153900146484,15.83797073364258,7.49029541015625,0,2
1562614117.60069,66,0,309381.066820875,0.2944808701255633,-0.2839127963721189,0.329180541277629,-0.6748859882354736,-1.988400816917419,1.629081130027771,0.01118117570877075,-0.07369968295097351,-0.1121846437454224,2,0.1809208542108536,-0.1142617091536522,0.1203400865197182,0.9693968296051025,-0.2650739252567291,-0.3232676684856415,-0.9084238409996033,21.87313079833984,13.64384841918945,1.275726318359375,0,2
1562614117.633462,67,0,309381.101763875,0.3384609794543758,-0.3544436655500505,0.3121325918655904,0.1974610090255737,-1.476134777069092,1.122607946395874,-0.03527134656906128,-0.0485197901725769,-0.1097508668899536,2,0.1801448911428452,-0.1458964496850967,0.1367602050304413,0.9630984663963318,-0.3302986025810242,-0.3070888817310333,-0.8925240635871887,16.17572784423828,9.154014587402344,-7.249420166015625,0,2
1562614117.667222,68,0,309381.136736875,0.377261169432993,-0.4129532583818603,0.3104439918564901,0.3455056548118591,-1.24156391620636,0.9632854461669922,-0.06212911009788513,-0.0193219780921936,0.06304329633712769,2,0.186612144112587,-0.1705812364816666,0.1501918435096741,0.9557825326919556,-0.3821323812007904,-0.3054814338684082,-0.8721559047698975,11.16197967529297,4.485725402832031,-11.84799194335938,0,2
1562614117.717946,69,0,309381.171648875,0.4071165314996829,-0.4555380885299924,0.2978078067969563,-0.2236743271350861,-0.7439528703689575,0.814254105091095,-0.08246427774429321,-0.0254751443862915,0.1226510405540466,2,0.1866812855005264,-0.1894795298576355,0.1619475781917572,0.9502739310264587,-0.4205800890922546,-0.2934252023696899,-0.8584952354431152,7.526603698730469,0.1818771362304688,-14.59445190429688,0,2
1562614117.732776,70,0,309381.171648875,0.4071165314996829,-0.4555380885299924,0.2978078067969563,-0.2236743271350861,-0.7439528703689575,0.814254105091095,-0.08246427774429321,-0.0254751443862915,0.1226510405540466,2,0.1866812855005264,-0.1894795298576355,0.1619475781917572,0.9502739310264587,-0.4205800890922546,-0.2934252023696899,-0.8584952354431152,7.526603698730469,0.1818771362304688,-14.59445190429688,0,2
1562614117.764513,71,0,309381.206621875,0.4130178258380807,-0.4673564632974881,0.2705446308812122,-0.8127552270889282,-0.1052879393100739,0.2942821383476257,-0.1229161620140076,-0.02847284078598022,0.06045156717300415,2,0.1754530519247055,-0.1976662278175354,0.167084813117981,0.9498562216758728,-0.4341400861740112,-0.2672562897205353,-0.8602885603904724,6.454566955566406,-0.08866119384765625,-17.44515991210938,0,2
1562614117.798376,72,0,309381.241564875,0.4008912200962454,-0.4623234028082327,0.2468344588242146,-0.6405327916145325,0.1186357289552689,-0.1031894311308861,-0.07634606957435608,-0.05444765090942383,-0.0273175835609436,2,0.1627003848552704,-0.1989546865224838,0.1646963357925415,0.9522712826728821,-0.4325099885463715,-0.2443355917930603,-0.867891252040863,6.876968383789062,1.113746643066406,-17.94284057617188,0,2
1562614117.83046,73,0,309381.276537875,0.3900229447375561,-0.4555199464377081,0.2374361639466633,-0.2503545880317688,0.09332375973463058,-0.1448265761137009,0.02553504705429077,-0.04191739857196808,-0.02450048923492432,2,0.1566399335861206,-0.1975986510515213,0.16120845079422,0.9541648626327515,-0.4275867342948914,-0.2352114915847778,-0.8728374242782593,8.433547973632812,3.403182983398438,-18.03158569335938,0,2
1562614117.873558,74,0,309381.311449875,0.3881737670573643,-0.4561984476222307,0.2320120411987192,-0.1570452600717545,-0.1050511449575424,0.1451519131660461,0.06560972332954407,-0.04369080066680908,0.01642769575119019,2,0.153951033949852,-0.1986436247825623,0.1609303653240204,0.9544323682785034,-0.4287346005439758,-0.2299361228942871,-0.8736795783042908,8.918190002441406,4.330398559570312,-17.45236206054688,0,2
1562614117.896787,75,0,309381.346422875,0.3938306839365308,-0.4642708189944071,0.2208581076876636,-0.2515909075737,-0.2359271496534348,0.3279409110546112,0.01617926359176636,-0.04020178318023682,0.03151786327362061,2,0.1499113887548447,-0.2032533586025238,0.164374440908432,0.9535175561904907,-0.4368945062160492,-0.2190669625997543,-0.8724293112754822,8.5264892578125,4.13494873046875,-18.15457153320312,0,2
1562614117.930222,76,0,309381.381365875,0.4003220552222604,-0.4742691646029265,0.2081003498115514,-0.2512112557888031,-0.2589291334152222,0.3162558674812317,-0.02290701866149902,-0.02972038090229034,0.0204092264175415,2,0.1453958451747894,-0.2089101821184158,0.1683056801557541,0.9523076415061951,-0.4468354284763336,-0.2066016048192978,-0.8704331517219543,8.206840515136719,3.851753234863281,-18.49856567382812,0,2
1562614117.962702,77,0,309381.416307875,0.4045901795091532,-0.4834377067257414,0.1974576850771684,-0.1880000084638596,-0.2274541556835175,0.2134793102741241,-0.04388904571533203,-0.02325308322906494,0.01849079132080078,2,0.141611322760582,-0.2141202390193939,0.1710136830806732,0.9512376189231873,-0.4557934105396271,-0.1961770504713058,-0.868197500705719,7.475936889648438,3.055564880371094,-19.36727905273438,0,2
1562614117.996169,78,0,309381.451250875,0.4063798829808122,-0.4875154810202125,0.1895802655001834,-0.2029595226049423,-0.04287436604499817,0.1254366636276245,-0.03928607702255249,-0.02615758776664734,0.03445744514465332,2,0.1384453773498535,-0.2167897820472717,0.1725765615701675,0.9508167505264282,-0.4600395560264587,-0.1884467005729675,-0.8676701188087463,6.789230346679688,2.140518188476562,-19.63760375976562,0,2
1562614118.032792,79,0,309381.4862159167,0.4064001373622342,-0.4880496338518795,0.1814544013124621,-0.2016440778970718,-0.001397235319018364,0.1012295186519623,-0.02418702840805054,-0.02580893039703369,0.02859431505203247,2,0.1346671581268311,-0.217923566699028,0.173580214381218,0.9509175419807434,-0.461205780506134,-0.1804602891206741,-0.8687481284141541,6.935035705566406,1.40008544921875,-20.52133178710938,0,2
1562614118.062102,80,0,309381.5211279167,0.4052118490555439,-0.4874710323139246,0.1741909983700798,-0.2049494683742523,0.01468616165220737,0.0609215646982193,-0.006829828023910522,-0.03328830003738403,0.0235741138458252,2,0.1310646533966064,-0.2185110300779343,0.1739722192287445,0.9512142539024353,-0.4613048434257507,-0.1733114421367645,-0.8701499700546265,6.616958618164062,1.071907043457031,-21.36087036132812,0,2
1562614118.111311,81,0,309381.5561009167,0.4043028096405018,-0.4882730379703349,0.1668237357028071,-0.2072443515062332,-0.03015539050102234,0.08825797587633133,0.007197260856628418,-0.04565557837486267,0.01234602928161621,2,0.1275612115859985,-0.2197413444519043,0.1744175255298615,0.9513256549835205,-0.4625889658927917,-0.1660510301589966,-0.8708837628364563,6.629020690917969,1.234466552734375,-21.83993530273438,0,2
1562614118.127952,82,0,309381.5910439167,0.4031700879185474,-0.4878711707242275,0.1597292684622889,-0.1848018914461136,0.01791679859161377,0.0530906617641449,0.0008574426174163818,-0.03386685252189636,0.02330255508422852,2,0.124054528772831,-0.2203777581453323,0.1747971177101135,0.9515723586082458,-0.4627795219421387,-0.159050926566124,-0.8720882534980774,7.043388366699219,1.878639221191406,-22.48068237304688,0,2
1562614118.159919,83,0,309381.6260169167,0.4010939505042375,-0.4864189931730492,0.1539907395151637,-0.1687102615833282,0.03634099662303925,0.01550908666104078,-9.858608245849609e-05,-0.03002157807350159,0.008899211883544922,2,0.1209896132349968,-0.2204213887453079,0.17461758852005,0.9519898295402527,-0.4619316756725311,-0.1533828526735306,-0.8735518455505371,7.214698791503906,2.765274047851562,-22.72470092773438,0,2
1562614118.200225,84,0,309381.6609289167,0.4001565617454494,-0.4861234733417097,0.1521138894596109,-0.01372397597879171,-0.006393673829734325,0.005429902113974094,0.008748948574066162,-0.01794786751270294,0.004131734371185303,2,0.1199739351868629,-0.2205348163843155,0.1744237840175629,0.9521275758743286,-0.4618071615695953,-0.1515279561281204,-0.8739413022994995,7.625564575195312,3.14263916015625,-22.51406860351562,0,2
1562614118.226311,85,0,309381.6959019167,0.4010171413666875,-0.4868726604412559,0.1531019241755805,0.04918670281767845,-0.03254662454128265,0.01341079268604517,-0.006519794464111328,-0.02116608619689941,0.02629613876342773,2,0.1206009760499001,-0.2207356840372086,0.1746648401021957,0.9519575834274292,-0.4623915255069733,-0.1525045037269592,-0.8734623193740845,7.840019226074219,2.905509948730469,-21.60317993164062,0,2
1562614118.273646,86,0,309381.7308449167,0.4019496483794622,-0.4879349671026539,0.1538922425841014,-0.001882496289908886,-0.002201059833168983,0.01337730698287487,-0.01204094290733337,-0.03008854389190674,0.04020798206329346,2,0.1211700215935707,-0.2211014777421951,0.1749453991651535,0.9517490267753601,-0.4632624983787537,-0.1532855331897736,-0.8728639483451843,7.908966064453125,2.533546447753906,-21.10287475585938,0,2
1562614118.292688,87,0,309381.7308449167,0.4019496483794622,-0.4879349671026539,0.1538922425841014,-0.001882496289908886,-0.002201059833168983,0.01337730698287487,-0.01204094290733337,-0.03008854389190674,0.04020798206329346,2,0.1211700215935707,-0.2211014777421951,0.1749453991651535,0.9517490267753601,-0.4632624983787537,-0.1532855331897736,-0.8728639483451843,7.908966064453125,2.533546447753906,-21.10287475585938,0,2
1562614118.325716,88,0,309381.7658179167,0.4016694869762799,-0.4872641595337485,0.1522190004560171,-0.05747868120670319,0.03228770568966866,0.01471605245023966,-0.005351334810256958,-0.0301729142665863,0.04117190837860107,2,0.1202902346849442,-0.2209758311510086,0.1750622689723969,0.9518682360649109,-0.4627963006496429,-0.1516318470239639,-0.8733998537063599,7.500999450683594,1.474464416503906,-20.38937377929688,0,2
1562614118.357943,89,0,309381.8007299167,0.4009188320850967,-0.4848414603105682,0.1492218393009256,-0.1198008805513382,0.06026418507099152,0.03724588453769684,0.006715357303619385,-0.02479375898838043,0.04003584384918213,2,0.1185793876647949,-0.2201830744743347,0.1752238273620605,0.9522367715835571,-0.4608887135982513,-0.1486686617136002,-0.874916672706604,7.7730712890625,0.4535598754882812,-19.60281372070312,0,2
1562614118.391622,90,0,309381.8357029167,0.4011896988391375,-0.4854786650690175,0.1448610912896493,-0.07173315435647964,-0.01811068318784237,0.07781808823347092,0.0119360089302063,-0.03222645819187164,0.008706569671630859,2,0.1166043058037758,-0.2209286540746689,0.1758581399917603,0.952191174030304,-0.4617442488670349,-0.144354984164238,-0.8751879334449768,7.750236511230469,-0.5579986572265625,-19.77731323242188,0,2
1562614118.433008,91,0,309381.8706459167,0.4033215859056759,-0.4841565004853655,0.1439691690496785,0.02810502238571644,0.06625106930732727,0.05562517419457436,0.008426100015640259,-0.03080618381500244,0.02002042531967163,2,0.1163012757897377,-0.2202689051628113,0.1770609617233276,0.9521580338478088,-0.4606464505195618,-0.1434723436832428,-0.8759112358093262,7.54736328125,-0.9770278930664062,-19.64285278320312,0,2
1562614118.457471,92,0,309381.9056189167,0.404357162495728,-0.4829028058817431,0.1425967176065253,-0.07171747088432312,0.03001756221055984,0.04828977584838867,0.01408517360687256,-0.04145915806293488,0.03104108572006226,2,0.1156552657485008,-0.2197567671537399,0.177796795964241,0.9522179961204529,-0.4596389830112457,-0.1421139538288116,-0.8766616582870483,7.197372436523438,-2.161338806152344,-19.69808959960938,0,2
1562614118.489457,93,0,309381.9405309167,0.4048115768348426,-0.4819844560867882,0.1391847692952602,-0.05277993530035019,0.03709786385297775,0.05701817944645882,0.009167641401290894,-0.04363670945167542,0.01698076725006104,2,0.1140103787183762,-0.219653531908989,0.178487554192543,0.9523109197616577,-0.4590557813644409,-0.1387358158826828,-0.8775079250335693,6.610511779785156,-2.907066345214844,-20.09426879882812,0,2
1562614118.523444,94,0,309381.9755039167,0.4050077028205107,-0.480059747766806,0.1374853599525362,-0.06765764951705933,0.0602249875664711,0.01866256259381771,0.01095607876777649,-0.0378301739692688,0.01738542318344116,2,0.1130562648177147,-0.2189050763845444,0.1788994669914246,0.9525197148323059,-0.4574742019176483,-0.1370526403188705,-0.8785976767539978,6.278640747070312,-3.442535400390625,-21.44003295898438,0,2
1562614118.555348,95,0,309382.0104469167,0.4049985397999289,-0.4798294628876615,0.1354044506903462,-0.0262218676507473,-0.01157252956181765,0.03534550592303276,0.009419500827789307,-0.03922334313392639,0.0146142840385437,2,0.1120503470301628,-0.2190152108669281,0.1791635900735855,0.9525636434555054,-0.4574025273323059,-0.1349910646677017,-0.8789541125297546,5.756332397460938,-3.907478332519531,-22.49874877929688,0,2
1562614118.59755,96,0,309382.0454199167,0.4055917113393725,-0.4791519634983177,0.1343888169647428,-0.04767448455095291,0.02507051080465317,0.03011500835418701,0.001882314682006836,-0.03154891729354858,0.02671879529953003,2,0.1115740314126015,-0.218766376376152,0.1796085238456726,0.9525929689407349,-0.4568699300289154,-0.1339846700429916,-0.8793849945068359,5.692832946777344,-4.060775756835938,-22.80313110351562,0,2
1562614118.621226,97,0,309382.0803319167,0.4061117965132023,-0.4808171719551183,0.1312270508140862,-0.07207547128200531,-0.06648866832256317,0.07125149667263031,-0.004438251256942749,-0.0364421010017395,0.01764512062072754,2,0.1102851182222366,-0.2198638021945953,0.180151641368866,0.9523877501487732,-0.4585272669792175,-0.1308507472276688,-0.8789942264556885,5.296424865722656,-4.497764587402344,-23.69400024414062,0,2
1562614118.679391,98,0,309382.1153049167,0.4077775403657595,-0.4815775521982418,0.1285802775073678,-0.06037114188075066,-0.00323992595076561,0.07761751860380173,-0.01165121793746948,-0.02242293953895569,0.03809255361557007,2,0.1092851981520653,-0.2204136252403259,0.1812280714511871,0.9521716833114624,-0.4593543112277985,-0.1282262653112411,-0.8789491653442383,4.816673278808594,-4.897621154785156,-25.01296997070312,0,2
1562614118.687118,99,0,309382.1502479167,0.4083547742272662,-0.4835359786675661,0.1243450900384657,-0.1177036389708519,-0.07088345289230347,0.07098281383514404,-0.01733958721160889,-0.02281565219163895,0.02626526355743408,2,0.1075236946344376,-0.2217617034912109,0.1819175183773041,0.9519277811050415,-0.4613231420516968,-0.1240249052643776,-0.8785207867622375,4.016555786132812,-4.87908935546875,-26.51998901367188,0,2
1562614118.721131,100,0,309382.1851909167,0.4094650183365084,-0.4852049554242936,0.1213665355895704,-0.0261964276432991,-0.02847130224108696,0.06404298543930054,-0.02368167042732239,-0.0183449387550354,0.01359403133392334,2,0.1063906624913216,-0.2228110581636429,0.1827237159013748,0.9516555666923523,-0.462958961725235,-0.1210688054561615,-0.8780725002288818,3.309417724609375,-4.443824768066406,-27.81723022460938,0,2
1562614118.753638,101,0,309382.2201329167,0.4094815452172167,-0.4848097562307794,0.120514969388585,-0.04288996011018753,0.03893617168068886,-0.01234752498567104,-0.01336103677749634,-0.02117511630058289,0.03187352418899536,2,0.1059537008404732,-0.2227120697498322,0.1828575730323792,0.9517017006874084,-0.4626597762107849,-0.1202234551310539,-0.87834632396698,2.941238403320312,-4.370140075683594,-28.18966674804688,0,2
1562614118.78703,102,0,309382.2551059167,0.4086003651012654,-0.4848399528854407,0.1182783358148481,-0.0738864541053772,-0.0227068904787302,0.02849830873310566,0.003360897302627563,-0.04282344877719879,0.004797637462615967,2,0.1048004105687141,-0.2230086326599121,0.1827121824026108,0.9517879486083984,-0.4628104865550995,-0.118002749979496,-0.8785680532455444,2.745811462402344,-3.596977233886719,-29.33505249023438,0,2
1562614118.833071,103,0,309382.2900179167,0.4091287154072892,-0.4843672338532098,0.1164731748102884,-0.0114532969892025,0.036299217492342,0.03467876464128494,0.01151224970817566,-0.03892720490694046,0.0117499828338623,2,0.1039621606469154,-0.2229461073875427,0.1832104176282883,0.9517987370491028,-0.4624935388565063,-0.1162100061774254,-0.8789737820625305,2.234298706054688,-3.103912353515625,-30.41537475585938,0,2
1562614118.852918,104,0,309382.3249919167,0.4098694576165238,-0.4845654350187997,0.1153976050752608,-0.06118610128760338,-0.01842000149190426,0.03895121440291405,0.005458235740661621,-0.03317638486623764,0.0142708420753479,2,0.1035541519522667,-0.2231152951717377,0.1836848855018616,0.9517120718955994,-0.4627256989479065,-0.1151416599750519,-0.8789921998977661,2.091156005859375,-2.765304565429688,-31.12832641601562,0,2
1562614118.885176,105,0,309382.3249919167,0.4098694576165238,-0.4845654350187997,0.1153976050752608,-0.06118610128760338,-0.01842000149190426,0.03895121440291405,0.005458235740661621,-0.03317638486623764,0.0142708420753479,2,0.1035541519522667,-0.2231152951717377,0.1836848855018616,0.9517120718955994,-0.4627256989479065,-0.1151416599750519,-0.8789921998977661,2.091156005859375,-2.765304565429688,-31.12832641601562,0,2
1562614118.918817,106,0,309382.3599339167,0.4107207770286863,-0.485367342100792,0.1126552528335713,-0.01078594382852316,-0.02397696301341057,0.07145395129919052,-0.006629705429077148,-0.04535002261400223,-0.009262204170227051,2,0.1024258360266685,-0.2237420976161957,0.1843859255313873,0.9515514373779297,-0.4635759890079498,-0.1124171167612076,-0.8788968324661255,1.575469970703125,-2.703048706054688,-31.81082153320312,0,2
1562614118.950836,107,0,309382.3949069167,0.4126467962412772,-0.4848002366493787,0.1132912868212938,0.0001019537448883057,0.03676865994930267,0.01824897341430187,-0.01238086819648743,-0.01717501133680344,0.04083371162414551,2,0.1028895005583763,-0.2233062088489532,0.1852531135082245,0.9514354467391968,-0.4630440771579742,-0.1130490973591805,-0.8790961503982544,1.211013793945312,-2.494659423828125,-32.61978149414062,0,2
1562614118.998681,108,0,309382.4298199167,0.4126883908397233,-0.4865184592083101,0.1102194944184214,-0.07616229355335236,-0.09226467460393906,0.07570994645357132,-0.02422770857810974,-0.03260688483715057,0.002909064292907715,2,0.1016007363796234,-0.2244465351104736,0.1855630278587341,0.9512451887130737,-0.4647140502929688,-0.1099964678287506,-0.8786020874977112,1.642562866210938,-2.27593994140625,-32.45791625976562,0,2
1562614119.017341,109,0,309382.4648030417,0.4147900121935015,-0.4869742086210062,0.1098910326113607,0.04227088391780853,0.06896043568849564,0.02494956739246845,-0.02782279253005981,-0.01810227334499359,0.03063708543777466,2,0.1017237454652786,-0.2245912551879883,0.1865797787904739,0.9509990215301514,-0.4651313126087189,-0.109669990837574,-0.8784220814704895,-1.332168579101562,-1.422782897949219,-32.79129028320312,0,2
1562614119.052902,110,0,309382.4997450417,0.4144006462773274,-0.4860670200799678,0.109049564295092,-0.08446279168128967,-0.01547849271446466,0.01305522583425045,-0.01968199014663696,-0.01683415472507477,0.04159295558929443,2,0.1011975705623627,-0.2242689579725266,0.186544269323349,0.9511381387710571,-0.4643771648406982,-0.1088335588574409,-0.8789249658584595,-3.5982666015625,0.1704940795898438,-31.69454956054688,0,2
1562614119.082735,111,0,309382.5347180417,0.4148569774820141,-0.4869641413573637,0.1060668163130689,-0.01971237175166607,-0.01148546859622002,0.06528540700674057,-0.01790332794189453,-0.03199568390846252,-0.006499588489532471,2,0.09992217272520065,-0.2249890267848969,0.1870831996202469,0.9509970545768738,-0.4653153121471405,-0.1058680489659309,-0.8787909746170044,-2.892822265625,0.283447265625,-32.49227905273438,0,2
1562614119.116738,112,0,309382.5696310417,0.4161018534060583,-0.4858569978615733,0.1071082002316598,0.03390016779303551,0.07055837661027908,-0.01759863831102848,-0.01461130380630493,-0.01194623112678528,0.03085911273956299,2,0.100450724363327,-0.2242896109819412,0.1876025348901749,0.9510042071342468,-0.4642903506755829,-0.1069035232067108,-0.8792076706886292,-0.7642898559570312,-0.1992645263671875,-33.68649291992188,0,2
1562614119.152845,113,0,309382.6046040417,0.4151758257514015,-0.4848176257168145,0.1068746254119034,-0.02369076013565063,-0.005232013761997223,-0.002370045054703951,-2.73585319519043e-05,-0.02827683091163635,0.01471668481826782,2,0.1001390963792801,-0.2238665819168091,0.1872429400682449,0.95120769739151,-0.4633879065513611,-0.1066712811589241,-0.8797118067741394,1.304344177246094,-0.0738525390625,-33.86990356445312,0,2
1562614119.182554,114,0,309382.6395460417,0.4156995546230689,-0.4841615181808058,0.107478068161757,0.04022473096847534,0.05350445210933685,-0.006112612318247557,0.004735559225082397,-0.03159748762845993,0.01380407810211182,2,0.1004216149449348,-0.223464161157608,0.1874509751796722,0.9512315392494202,-0.4627805650234222,-0.1072712615132332,-0.8799585103988647,2.128738403320312,-0.017120361328125,-33.52774047851562,0,2
1562614119.233516,115,0,309382.6745190417,0.4159301399033668,-0.4830102227197122,0.1092310072534002,0.04090344533324242,0.02537512965500355,-0.01277605444192886,0.006150305271148682,-0.03626099228858948,0.02997696399688721,2,0.1011685356497765,-0.2227184325456619,0.1874041259288788,0.9513364434242249,-0.4616791307926178,-0.1090139225125313,-0.8803228735923767,4.023002624511719,-0.5096206665039062,-33.07962036132812,0,2
1562614119.248733,116,0,309382.7094320417,0.4160416198352225,-0.4819225856987673,0.1088598178863306,-0.02268867567181587,0.03284344077110291,0.01695901900529861,0.008643180131912231,-0.03728663921356201,0.02442693710327148,2,0.1009033992886543,-0.2222349345684052,0.1875574439764023,0.9514474868774414,-0.4607401192188263,-0.1086449399590492,-0.8808602690696716,4.490966796875,-0.4006423950195312,-33.08999633789062,0,2
1562614119.280293,117,0,309382.7444050417,0.4166192885450182,-0.4810242009713662,0.1088712830833844,0.01210139505565166,0.03984733298420906,0.008509394712746143,0.01024556159973145,-0.03080550581216812,0.02661001682281494,2,0.10088861733675,-0.2217771708965302,0.1878761798143387,0.9514930248260498,-0.4599480032920837,-0.1086563393473625,-0.8812727332115173,5.730697631835938,-0.5800857543945312,-32.68508911132812,0,2
1562614119.314329,118,0,309382.7793470417,0.4166406631708843,-0.4797746169289662,0.1086928114648691,-0.005524353589862585,0.01042431592941284,0.01332875806838274,0.004634827375411987,-0.02964036911725998,0.0177416205406189,2,0.1006891429424286,-0.2212006002664566,0.1879710406064987,0.9516295790672302,-0.4588553607463837,-0.108478918671608,-0.8818640112876892,7.205085754394531,-0.8420944213867188,-32.02005004882812,0,2
1562614119.346221,119,0,309382.8143200417,0.417826353758648,-0.4794875263142857,0.1086390945106618,0.009946161881089211,0.02788567915558815,0.02791110798716545,0.003056466579437256,-0.0268709808588028,0.02656090259552002,2,0.1007677763700485,-0.2210100144147873,0.1885561645030975,0.9515498280525208,-0.4586048424243927,-0.1084255203604698,-0.8820008635520935,7.903175354003906,-0.6352920532226562,-32.04000854492188,0,2
1562614119.397662,120,0,309382.8492330417,0.4183315316527458,-0.4786766915524457,0.1088825182977249,0.002026916947215796,0.01115274429321289,0.01209363527595997,-2.190470695495605e-05,-0.02466023713350296,0.03376072645187378,2,0.1008622273802757,-0.2205727398395538,0.1888078600168228,0.9515913128852844,-0.4578773677349091,-0.1086675077676773,-0.8823489546775818,8.143356323242188,-0.6536712646484375,-31.85885620117188,0,2
1562614119.412091,121,0,309382.8842060417,0.41856063771647,-0.4782662172964269,0.1077317399231394,-0.02970154210925102,0.01381681114435196,0.02609539218246937,0.0006645023822784424,-0.03010890632867813,0.01700013875961304,2,0.1003042384982109,-0.2204890698194504,0.1890769749879837,0.9516162276268005,-0.4575724005699158,-0.1075234711170197,-0.8826472759246826,9.369430541992188,-0.4755935668945312,-31.82186889648438,0,2
1562614119.44613,122,0,309382.9191180417,0.4195856183241428,-0.477533396184075,0.1080838413789734,0.02000691927969456,0.03296890109777451,0.01678447611629963,0.002715259790420532,-0.02458562701940536,0.03373569250106812,2,0.1005143448710442,-0.2200511991977692,0.1895588338375092,0.9515995979309082,-0.4569080173969269,-0.1078735217452049,-0.8829486966133118,10.01349639892578,-0.6741409301757812,-31.54556274414062,0,2
1562614119.478218,123,0,309382.9191180417,0.4195856183241428,-0.477533396184075,0.1080838413789734,0.02000691927969456,0.03296890109777451,0.01678447611629963,0.002715259790420532,-0.02458562701940536,0.03373569250106812,2,0.1005143448710442,-0.2200511991977692,0.1895588338375092,0.9515995979309082,-0.4569080173969269,-0.1078735217452049,-0.8829486966133118,10.01349639892578,-0.6741409301757812,-31.54556274414062,0,2
1562614119.512526,124,0,309382.9540910417,0.4195217454014874,-0.4774372540005663,0.1064828218557358,-0.05272823944687843,-0.03152730315923691,0.03540638834238052,-0.0006019175052642822,-0.03118458390235901,0.0126613974571228,2,0.0997406542301178,-0.2201803177595139,0.1897268295288086,0.9516176581382751,-0.4569019079208374,-0.1062817052006721,-0.8831448554992676,10.96410369873047,-1.290985107421875,-31.18637084960938,0,2
1562614119.555756,125,0,309382.9890340417,0.4211073911434287,-0.4775459976322583,0.106575944550124,0.04597380384802818,0.03972534090280533,0.02200906537473202,0.0002526342868804932,-0.02538507431745529,0.02217006683349609,2,0.09996959567070007,-0.2201428860425949,0.1904645413160324,0.9514549374580383,-0.4569934010505676,-0.1063743010163307,-0.8830863833427429,11.49082183837891,-1.583549499511719,-31.58932495117188,0,2
1562614119.577923,126,0,309383.0240070417,0.4210287440406389,-0.4768267406870728,0.1058265463589984,-0.05903307348489761,-0.008248105645179749,0.02220067754387856,-0.002437412738800049,-0.02756562083959579,0.02737617492675781,2,0.09953787177801132,-0.2198852002620697,0.1905535161495209,0.9515419602394104,-0.4563945829868317,-0.1056291237473488,-0.8834854364395142,11.69516754150391,-1.985664367675781,-31.57479858398438,0,2
1562614119.609981,127,0,309383.0589190417,0.4220214030117564,-0.4777478280722006,0.1041557332583014,0.001028035301715136,0.004452791064977646,0.04621288552880287,-0.00177079439163208,-0.03185410797595978,0.006297528743743896,2,0.09894454479217529,-0.2204538434743881,0.1911817938089371,0.951346218585968,-0.4572886526584625,-0.1039675176143646,-0.8832201361656189,11.92168426513672,-1.803009033203125,-31.85513305664062,0,2
1562614119.646053,128,0,309383.0938920417,0.4228743831535327,-0.4771750854435466,0.1045961527806122,0.007321280892938375,0.01479994505643845,0.007607008330523968,-0.002603739500045776,-0.01951359957456589,0.03284025192260742,2,0.09919203817844391,-0.220091700553894,0.1915627121925354,0.9513276815414429,-0.4567616581916809,-0.1044055372476578,-0.883441150188446,12.56649017333984,-2.114372253417969,-31.17166137695312,0,2
1562614119.675735,129,0,309383.1288350417,0.4225086452880951,-0.4772618905903946,0.1033884837116937,-0.04052663967013359,-0.01455319207161665,0.01069896668195724,-0.001904606819152832,-0.02482105046510696,0.008375883102416992,2,0.09858876466751099,-0.220281258225441,0.1915302127599716,0.9513529539108276,-0.4568959176540375,-0.1032043918967247,-0.8835128545761108,12.73310089111328,-1.955574035644531,-30.91317749023438,0,2
1562614119.712836,130,0,309383.1638080417,0.4231152459018241,-0.4772502370948526,0.1049465593591555,0.08093345165252686,0.03159037604928017,-0.02680955454707146,-0.003484666347503662,-0.0227198526263237,0.01498144865036011,2,0.09939152002334595,-0.2200776934623718,0.1916312575340271,0.9512962102890015,-0.4568111896514893,-0.1047540232539177,-0.8833742737770081,13.55596160888672,-2.035804748535156,-30.27365112304688,0,2
1562614119.741707,131,0,309383.1987200417,0.4222321793558133,-0.4762630422487071,0.107334080645682,0.02455703169107437,-0.00765656866133213,-0.04333034157752991,-0.000400155782699585,-0.02722404897212982,0.02651429176330566,2,0.1003295257687569,-0.2193945646286011,0.1909723430871964,0.9514880776405334,-0.4558229446411133,-0.1071281060576439,-0.8835999965667725,13.99193572998047,-2.106636047363281,-30.07327270507812,0,2
1562614119.79278,132,0,309383.2336930417,0.4221292346303748,-0.4770841408711556,0.1082892105718607,0.0160678569227457,-0.003641717135906219,-0.01359215099364519,-0.002162396907806396,-0.03165945410728455,0.01445102691650391,2,0.1008484214544296,-0.2196873277425766,0.1907667517662048,0.9514068961143494,-0.4565011262893677,-0.1080776900053024,-0.883134126663208,13.96276092529297,-2.112419128417969,-30.68002319335938,0,2
1562614119.808354,133,0,309383.2686360417,0.4214835107262399,-0.4762851002625058,0.1100261914766159,0.04301611706614494,0.0190284438431263,-0.04476844519376755,-0.008388102054595947,-0.02329272776842117,0.01927101612091064,2,0.1015231236815453,-0.2191525101661682,0.1902901381254196,0.9515539407730103,-0.4557085633277893,-0.1098043322563171,-0.8833304643630981,14.19057464599609,-2.411216735839844,-29.73208618164062,0,2
1562614119.841423,134,0,309383.3036090417,0.4203435119342944,-0.4756374179279569,0.11134174297811,-0.0141904940828681,0.01085138134658337,-0.04037710651755333,5.120038986206055e-05,-0.02498932182788849,0.02567791938781738,2,0.1019591838121414,-0.2187605947256088,0.1896218508481979,0.9517309069633484,-0.4550698101520538,-0.1111118346452713,-0.8834962248802185,14.62488555908203,-2.866447448730469,-29.34201049804688,0,2
1562614119.873657,135,0,309383.3385210417,0.4200986115913836,-0.4768177227371866,0.1115100408272075,0.02887429296970367,-0.04521553963422775,0.007049398496747017,-0.006466537714004517,-0.02979619055986404,0.008017659187316895,2,0.1021238341927528,-0.2193166166543961,0.1894247680902481,0.9516245126724243,-0.4561037123203278,-0.1112790927290916,-0.8829419016838074,14.89459991455078,-3.362152099609375,-29.05136108398438,0,2
1562614119.907358,136,0,309383.3734940417,0.4198823218063378,-0.4762908033263636,0.1129479676323021,0.01474737748503685,0.03079955652356148,-0.04088366404175758,-0.01751977205276489,-0.01805032044649124,0.03379541635513306,2,0.1027305126190186,-0.2189222574234009,0.1891749650239944,0.9516996741294861,-0.455564558506012,-0.1127079725265503,-0.8830389976501465,14.86208343505859,-3.448219299316406,-28.65280151367188,0,2
1562614119.952028,137,0,309383.4084370417,0.4188270668841433,-0.4762445499250489,0.1129534290949335,-0.03094367496669292,-0.00771357212215662,-0.0138881104066968,-0.007063001394271851,-0.02381274104118347,0.02827703952789307,2,0.1026132106781006,-0.2189538329839706,0.1886745095252991,0.9518043994903564,-0.4555234313011169,-0.1127133965492249,-0.8830595016479492,14.77196502685547,-3.476974487304688,-28.20297241210938,0,2
1562614119.97325,138,0,309383.4434100417,0.4184518691163681,-0.4760847913731906,0.113059747332516,0.01985665410757065,-0.001790435984730721,-0.008608926087617874,-0.01169589161872864,-0.02385952323675156,0.01251590251922607,2,0.1026073694229126,-0.2188856303691864,0.1884912848472595,0.9518570899963379,-0.4553768634796143,-0.1128190383315086,-0.8831216096878052,14.19010162353516,-3.583572387695312,-27.76907348632812,0,2
1562614120.005589,139,0,309383.478311,0.4181193200659771,-0.4757428055273968,0.1142166319528565,0.006268672179430723,0.02758298814296722,-0.03307527303695679,-0.007526665925979614,-0.01938202977180481,0.02908027172088623,2,0.1030861809849739,-0.218615859746933,0.1882108002901077,0.9519228935241699,-0.4550147354602814,-0.1139684617519379,-0.8831607103347778,13.18949127197266,-3.525009155273438,-28.02987670898438,0,2
1562614120.03925,140,0,309383.478311,0.4181193200659771,-0.4757428055273968,0.1142166319528565,0.006268672179430723,0.02758298814296722,-0.03307527303695679,-0.007526665925979614,-0.01938202977180481,0.02908027172088623,2,0.1030861809849739,-0.218615859746933,0.1882108002901077,0.9519228935241699,-0.4550147354602814,-0.1139684617519379,-0.8831607103347778,13.18949127197266,-3.525009155273438,-28.02987670898438,0,2
1562614120.071173,141,0,309383.513284,0.4176528812511489,-0.4755371073945872,0.1149878189647751,0.0381048321723938,-0.01037728786468506,-0.01265069935470819,-0.002988278865814209,-0.02415374666452408,0.01789557933807373,2,0.1033807843923569,-0.2184593379497528,0.1879062354564667,0.9519870281219482,-0.454792708158493,-0.1147345900535583,-0.8831758499145508,11.86028289794922,-3.425628662109375,-28.25424194335938,0,2
1562614120.118303,142,0,309383.548227,0.4174135832310699,-0.4748470549612015,0.1163818731470152,0.0152986217290163,0.02883036062121391,-0.03338567167520523,-0.004679352045059204,-0.02302638441324234,0.02828967571258545,2,0.1039495542645454,-0.217993825674057,0.1876597553491592,0.9520803689956665,-0.4541095793247223,-0.1161193251609802,-0.8833463788032532,11.30797576904297,-3.581703186035156,-28.49258422851562,0,2
1562614120.137109,143,0,309383.5832,0.4172546788881649,-0.4750382502357073,0.1172296201235328,0.03213212639093399,-0.00266261026263237,-0.004031138494610786,-0.004646927118301392,-0.02889704704284668,0.0165942907333374,2,0.104351319372654,-0.2180022299289703,0.18747179210186,0.952071487903595,-0.4542332589626312,-0.1169612929224968,-0.8831716775894165,10.31482696533203,-3.570045471191406,-28.75076293945312,0,2
1562614120.173289,144,0,309383.618112,0.4171065879667978,-0.473928835481636,0.1188078416423124,0.0275716595351696,0.03230227530002594,-0.03402088955044746,-0.009421229362487793,-0.02036954462528229,0.03144395351409912,2,0.1049780696630478,-0.2173125594854355,0.187268853187561,0.9522002339363098,-0.4531683921813965,-0.1185285374522209,-0.8835096955299377,9.539649963378906,-3.139564514160156,-28.91006469726562,0,2
1562614120.202957,145,0,309383.653085,0.4167407769341935,-0.4743942357568112,0.1188669262737012,-0.01117972936481237,-0.0153376804664731,0.004742485471069813,-0.008341342210769653,-0.02877942472696304,0.01387715339660645,2,0.1050098091363907,-0.2175469994544983,0.1870631277561188,0.9521836638450623,-0.4535763263702393,-0.1185872033238411,-0.8832924962043762,8.883758544921875,-3.168289184570312,-29.02310180664062,0,2
1562614120.236877,146,0,309383.687997,0.4170860142066812,-0.473902290009473,0.1201602914447362,0.05773837864398956,0.02669814974069595,-0.01667010225355625,-0.01624742150306702,-0.01739207655191422,0.02024966478347778,2,0.1056133359670639,-0.2171558886766434,0.1870973110198975,0.952199399471283,-0.4530713558197021,-0.1198713481426239,-0.883378267288208,8.2796630859375,-2.685226440429688,-29.32894897460938,0,2
1562614120.274171,147,0,309383.72297,0.41627491585899,-0.47320929298398,0.1208501657253634,-0.035184595733881,0.007491758093237877,-0.02973437123000622,-0.01320570707321167,-0.0221230685710907,0.02296185493469238,2,0.1057870537042618,-0.2167948037385941,0.1866645514965057,0.9523472785949707,-0.4524212777614594,-0.1205562129616737,-0.8836182355880737,7.561843872070312,-2.404769897460938,-28.89999389648438,0,2
1562614120.302847,148,0,309383.757913,0.4159620323986966,-0.4732515592347238,0.1211392898767556,0.04257488250732422,0.01159891858696938,-0.006080199964344501,-0.01365727186203003,-0.02487215399742126,0.001411974430084229,2,0.1058938950300217,-0.2168004959821701,0.186478465795517,0.9523706436157227,-0.4524427056312561,-0.1208432242274284,-0.8835680484771729,7.194808959960938,-2.338134765625,-29.02542114257812,0,2
1562614120.35558,149,0,309383.792886,0.4156730653018239,-0.471768869607652,0.1225632550650112,0.00796961784362793,0.0328393429517746,-0.02823945693671703,-0.009509503841400146,-0.01959624141454697,0.03050810098648071,2,0.1063984110951424,-0.2159571796655655,0.1862480789422989,0.9525511264801025,-0.4510535001754761,-0.1222566366195679,-0.8840837478637695,7.089179992675781,-2.24639892578125,-28.99441528320312,0,2
1562614120.369383,150,0,309383.827798,0.4158006478148019,-0.4721923911147182,0.1232713881084736,0.0142409410327673,-0.01202763803303242,0.0004577254876494408,-0.01039484143257141,-0.02255452424287796,0.0266382098197937,2,0.1067867949604988,-0.2160762101411819,0.1862010657787323,0.9524897933006287,-0.4513883888721466,-0.1229594200849533,-0.8838152885437012,6.900138854980469,-2.343429565429688,-29.51663208007812,0,2
1562614120.400639,151,0,309383.862771,0.4154126544389168,-0.4719262821609287,0.1229322250008075,-0.001516103744506836,0.007076160982251167,0.003743350738659501,-0.02130785584449768,-0.02994118630886078,-0.003004789352416992,2,0.1065595895051956,-0.2160065025091171,0.1860712915658951,0.9525564312934875,-0.4511721134185791,-0.1226228252053261,-0.8839724659919739,6.87286376953125,-2.155136108398438,-29.95028686523438,0,2
1562614120.438366,152,0,309383.897714,0.4164197988170018,-0.4703513369117727,0.1259036507157489,0.08751033246517181,0.08835013955831528,-0.03265950828790665,-0.005352914333343506,-0.01128718256950378,0.04335123300552368,2,0.1079278513789177,-0.2148835808038712,0.1862782686948776,0.9526158571243286,-0.4496122300624847,-0.1255712807178497,-0.8843532800674438,6.644622802734375,-2.140983581542969,-30.19259643554688,0,2
1562614120.466575,153,0,309383.932687,0.4156502831891864,-0.4705538160951903,0.12503532360835,-0.06986279785633087,-0.08765243738889694,0.02728981338441372,-0.01511874794960022,-0.02835476398468018,0.01367872953414917,2,0.1074529811739922,-0.2151146829128265,0.186005100607872,0.9526708126068115,-0.4498405754566193,-0.1247097849845886,-0.8843590617179871,6.892532348632812,-1.960861206054688,-29.97994995117188,0,2
1562614120.513464,154,0,309383.967599,0.4165984924558999,-0.4704965156400197,0.1259282481255002,0.09089744836091995,0.08955506235361099,-0.02234763652086258,-0.01972153782844543,-0.02525505423545837,0.00678408145904541,2,0.1079722046852112,-0.2149404287338257,0.1863525807857513,0.9525835514068604,-0.4497392177581787,-0.1255956888198853,-0.8842852115631104,7.419105529785156,-2.043563842773438,-30.04397583007812,0,2
1562614120.532587,155,0,309384.002572,0.415801701946753,-0.4682485823087852,0.128314942166278,0.01389110647141933,0.03159049153327942,-0.04507963731884956,-0.002120435237884521,-0.02170927822589874,0.04940927028656006,2,0.1088073551654816,-0.2136562317609787,0.1858086585998535,0.9528835415840149,-0.4476137161254883,-0.127963125705719,-0.8850239515304565,8.294456481933594,-1.692855834960938,-29.50283813476562,0,2
1562614120.566397,156,0,309384.037515,0.4149102421058369,-0.4672107700447726,0.1277460620046404,-0.02741093002259731,0.02035936526954174,0.0003501077881082892,0.004911512136459351,-0.02985794842243195,0.02009272575378418,2,0.1083465293049812,-0.2132711708545685,0.1855082362890244,0.9530808925628662,-0.4467276930809021,-0.127398893237114,-0.8855528831481934,8.430534362792969,-1.543708801269531,-29.54330444335938,0,2
1562614120.598544,157,0,309384.037515,0.4149102421058369,-0.4672107700447726,0.1277460620046404,-0.02741093002259731,0.02035936526954174,0.0003501077881082892,0.004911512136459351,-0.02985794842243195,0.02009272575378418,2,0.1083465293049812,-0.2132711708545685,0.1855082362890244,0.9530808925628662,-0.4467276930809021,-0.127398893237114,-0.8855528831481934,8.430534362792969,-1.543708801269531,-29.54330444335938,0,2
1562614120.632822,158,0,309384.072488,0.4155621088201584,-0.4674900829061123,0.1281955736612853,0.04242121800780296,0.02381031215190887,0.001799028250388801,-0.002984374761581421,-0.02838912606239319,0.01268380880355835,2,0.1086548045277596,-0.2133206725120544,0.1857500076293945,0.9529876112937927,-0.4469491839408875,-0.1278447359800339,-0.8853768706321716,8.537872314453125,-1.167686462402344,-29.87905883789062,0,2
1562614120.678578,159,0,309384.1074,0.4155785092448863,-0.4652231698476778,0.130144977166756,0.05269153416156769,0.05000621825456619,-0.0212621632963419,-0.005779564380645752,-0.02030386030673981,0.03518468141555786,2,0.1093690469861031,-0.2120300233364105,0.1856488287448883,0.9532136917114258,-0.4448283016681671,-0.1297778934240341,-0.8861633539199829,9.056953430175781,-1.20941162109375,-29.45205688476562,0,2
1562614120.698223,160,0,309384.142373,0.4156126177658988,-0.4646059294519916,0.1301350890136255,-0.05304888263344765,0.01883200742304325,0.009273587726056576,0.006734788417816162,-0.02359429001808167,0.03968727588653564,2,0.1093106865882874,-0.2117350399494171,0.1857000142335892,0.9532759189605713,-0.4442818164825439,-0.1297680884599686,-0.8864389061927795,9.47552490234375,-1.594001770019531,-29.41305541992188,0,2
1562614120.730242,161,0,309384.177316,0.416333842460002,-0.4650845228172463,0.1293065727036347,0.05707509443163872,-0.01930228248238564,0.03656092286109924,-0.01519209146499634,-0.02450855076313019,0.000873863697052002,2,0.109039269387722,-0.2120129019021988,0.1861162036657333,0.9531639814376831,-0.4447540640830994,-0.1289465427398682,-0.8863219618797302,9.746192932128906,-1.738006591796875,-29.44247436523438,0,2
1562614120.764086,162,0,309384.212289,0.4168681634280446,-0.4629538103311099,0.1319275950901862,0.02425082959234715,0.09092310816049576,-0.0511898547410965,-0.0169471800327301,-0.004938364028930664,0.0549054741859436,2,0.1101385056972504,-0.2106856405735016,0.186176210641861,0.9533202648162842,-0.442712128162384,-0.1315452307462692,-0.8869621157646179,10.50875091552734,-2.404884338378906,-28.97256469726562,0,2
1562614120.795968,163,0,309384.247201,0.4160325457976724,-0.4624356048252272,0.1311441790646151,-0.03720282018184662,-0.01651090942323208,0.02154160104691982,0.0008421242237091064,-0.02120381593704224,0.03204911947250366,2,0.1096312925219536,-0.2105689495801926,0.1858992129564285,0.9534585475921631,-0.4422982633113861,-0.1307685822248459,-0.8872833847999573,11.44579315185547,-2.806983947753906,-28.58602905273438,0,2
1562614120.833452,164,0,309384.282174,0.4164889630576291,-0.4616612002070954,0.131525508603219,0.03964250907301903,0.02988441474735737,-0.005391481332480907,-0.01291465759277344,-0.01545411348342896,0.01725614070892334,2,0.1097878888249397,-0.2101336568593979,0.1861141473054886,0.9534946084022522,-0.4415887892246246,-0.1311466246843338,-0.887580931186676,12.38346099853516,-3.345611572265625,-28.50680541992188,0,2
1562614120.861868,165,0,309384.317117,0.4170115955934641,-0.4616577513791891,0.1319646246291914,-0.01248694956302643,0.00919504277408123,0.01054332964122295,-0.007175624370574951,-0.02038928866386414,0.03595900535583496,2,0.1100504398345947,-0.2100559324026108,0.1863115429878235,0.9534429311752319,-0.4415600299835205,-0.1315819323062897,-0.8875308036804199,12.40738677978516,-3.656715393066406,-28.32730102539062,0,2
1562614120.913403,166,0,309384.35209,0.4167387184414468,-0.4605968824103729,0.1322220690683412,0.02905397489666939,0.03504781797528267,-0.01261162664741278,-0.008454233407974243,-0.02365846931934357,0.01433295011520386,2,0.1100449562072754,-0.2095374017953873,0.1862093955278397,0.9535775780677795,-0.4406031370162964,-0.1318371444940567,-0.8879683613777161,12.57001495361328,-3.819976806640625,-28.30404663085938,0,2
1562614120.928485,167,0,309384.387002,0.4166582433703832,-0.4591115947190285,0.1333650550146575,0.003464229870587587,0.05141237378120422,-0.01977097801864147,0.005904406309127808,-0.0258655846118927,0.02695167064666748,2,0.1104397028684616,-0.2087102979421616,0.186118096113205,0.9537312388420105,-0.4392167031764984,-0.1329700648784637,-0.8884861469268799,12.56148529052734,-4.137611389160156,-28.79873657226562,0,2
1562614120.96182,168,0,309384.421975,0.4170874660357476,-0.4590209828883575,0.13381703826813,0.0434160977602005,-0.01153448596596718,0.02798988483846188,0.00224187970161438,-0.03365668654441833,0.01196861267089844,2,0.1106901690363884,-0.2085945755243301,0.1862745583057404,0.9536969065666199,-0.4391095340251923,-0.1334180235862732,-0.8884719610214233,12.71982574462891,-4.715599060058594,-28.92788696289062,0,2
1562614120.993713,169,0,309384.456888,0.4179042074524592,-0.4583530563252055,0.1347578422977686,0.01113726384937763,0.03821701183915138,-0.003077000379562378,-0.005686759948730469,-0.02156883478164673,0.02923882007598877,2,0.1111586466431618,-0.2081290483474731,0.186590313911438,0.9536823630332947,-0.4384602606296539,-0.1343503594398499,-0.8886520862579346,12.78382110595703,-5.439468383789062,-28.75424194335938,0,2
1562614121.027839,170,0,309384.4918776667,0.4188102754605252,-0.4587474528678871,0.1347565049108808,0.02019025757908821,-0.01551277190446854,0.03833168745040894,-0.01249212026596069,-0.02204319834709167,0.02285540103912354,2,0.1112891659140587,-0.2082668542861938,0.1870005577802658,0.9535567164421082,-0.438810795545578,-0.1343490332365036,-0.8884792923927307,12.91883087158203,-5.82550048828125,-29.15414428710938,0,2
1562614121.073043,171,0,309384.5268196667,0.4199145377478795,-0.4586341869710493,0.1348357881781422,0.01162052899599075,0.004946066066622734,0.02396789938211441,-0.02669674158096313,-0.01245829463005066,0.02603894472122192,2,0.1114310622215271,-0.2081427574157715,0.1875239908695221,0.9534644484519958,-0.4387054443359375,-0.1344275921583176,-0.8885194063186646,12.86434173583984,-6.494468688964844,-29.08425903320312,0,2
1562614121.093786,172,0,309384.5617936667,0.4211035765925355,-0.4593721948057177,0.1346069396798599,0.0002025598660111427,-0.005456751212477684,0.03532378003001213,-0.03158071637153625,-0.0128379762172699,0.0294499397277832,2,0.1115158349275589,-0.2084531933069229,0.1880766153335571,0.9532778859138489,-0.4393746852874756,-0.1342008113861084,-0.8882229924201965,12.72838592529297,-7.001060485839844,-29.37088012695312,0,2
1562614121.125542,173,0,309384.5967056667,0.4217525326148053,-0.4594665246953981,0.1345764784284649,0.01615255884826183,-0.003990218043327332,0.01519512664526701,-0.03817832469940186,-0.01035052537918091,0.02651292085647583,2,0.1115779280662537,-0.2084652781486511,0.1883842498064041,0.95320725440979,-0.439460277557373,-0.1341706365346909,-0.8881852030754089,12.74767303466797,-6.994865417480469,-30.23501586914062,0,2
1562614121.159527,174,0,309384.6316786667,0.4218767660139617,-0.4593520191792563,0.1340973957611387,-0.03649166598916054,0.02143246121704578,0.00165090523660183,-0.02293187379837036,-0.01328261196613312,0.03098493814468384,2,0.1113532930612564,-0.2084560841321945,0.1885063350200653,0.9532113671302795,-0.4393870234489441,-0.1336958706378937,-0.8882930278778076,12.03725433349609,-6.832778930664062,-30.99581909179688,0,2
1562614121.191748,175,0,309384.6316786667,0.4218767660139617,-0.4593520191792563,0.1340973957611387,-0.03649166598916054,0.02143246121704578,0.00165090523660183,-0.02293187379837036,-0.01328261196613312,0.03098493814468384,2,0.1113532930612564,-0.2084560841321945,0.1885063350200653,0.9532113671302795,-0.4393870234489441,-0.1336958706378937,-0.8882930278778076,12.03725433349609,-6.832778930664062,-30.99581909179688,0,2
1562614121.238836,176,0,309384.6666206667,0.4222259164822048,-0.4595991617347982,0.1335435687358704,0.009831013157963753,-0.01974006369709969,0.02964874543249607,-0.01767432689666748,-0.02062246203422546,0.01839971542358398,2,0.1111508309841156,-0.2086149305105209,0.1887242943048477,0.9531570672988892,-0.4396393001079559,-0.1331469863653183,-0.8882505893707275,12.06798553466797,-6.631736755371094,-31.35043334960938,0,2
1562614121.257482,177,0,309384.7015946667,0.4228712816017354,-0.4594185320054217,0.1337823023922386,-0.005436277016997337,0.02524504251778126,0.002761177020147443,-0.0172998309135437,-0.0207822322845459,0.02669042348861694,2,0.1113140732049942,-0.2084668576717377,0.1890137493610382,0.9531130790710449,-0.4394647479057312,-0.1333835870027542,-0.8883014917373657,12.18505096435547,-6.367195129394531,-31.92355346679688,0,2
1562614121.292968,178,0,309384.7365066667,0.4237727167127602,-0.459350282350703,0.1335674199085307,0.007544482592493296,-0.000811280682682991,0.03532202169299126,-0.007337957620620728,-0.02651916444301605,0.02871453762054443,2,0.1112998574972153,-0.2084077000617981,0.1894724518060684,0.9530365467071533,-0.4394168257713318,-0.1331706345081329,-0.8883571624755859,11.76538848876953,-6.181259155273438,-32.70040893554688,0,2
1562614121.323442,179,0,309384.7714796667,0.4246080119133503,-0.4591430717988441,0.1334644997636918,0.01165513880550861,0.01201985776424408,0.02569352090358734,-0.01860937476158142,-0.02379843592643738,0.01784694194793701,2,0.1113184913992882,-0.2082737535238266,0.1898941248655319,0.9529798030853271,-0.4392388164997101,-0.1330686211585999,-0.8884604573249817,11.50794219970703,-5.756866455078125,-33.34225463867188,0,2
1562614121.357221,180,0,309384.8064216667,0.4264196736204084,-0.4594363587433654,0.1337172580645594,0.03394483029842377,0.01285234652459621,0.04168572276830673,-0.02414637804031372,-0.01834428310394287,0.02907067537307739,2,0.1116546913981438,-0.2082847058773041,0.1907111406326294,0.9527748227119446,-0.4394844472408295,-0.1333191245794296,-0.8883014321327209,11.11995697021484,-5.776214599609375,-33.62557983398438,0,2
1562614121.39306,181,0,309384.8413956667,0.427510626320974,-0.459004214275246,0.133863213487279,0.005467257928103209,0.004144396632909775,0.02717501111328602,-0.03303861618041992,-0.008952587842941284,0.0436629056930542,2,0.1117960214614868,-0.2080017924308777,0.1912377774715424,0.9527145028114319,-0.4390918910503387,-0.1334637850522995,-0.8884738087654114,10.99878692626953,-5.654632568359375,-33.73013305664062,0,2
1562614121.423258,182,0,309384.8763076667,0.428879955949756,-0.4597348316872983,0.1329697499589766,-0.004580623470246792,-0.004668603651225567,0.04720424488186836,-0.03821057081222534,-0.009457975625991821,0.03150045871734619,2,0.1115858480334282,-0.2083721458911896,0.1919545084238052,0.9525141716003418,-0.4397936463356018,-0.1325782537460327,-0.8882592916488647,10.23252105712891,-5.109786987304688,-33.88900756835938,0,2
1562614121.478657,183,0,309384.9112806667,0.4303601988008169,-0.4598061536745247,0.1335961002319038,0.03866947069764137,0.01095268689095974,0.02629036456346512,-0.04891094565391541,0.002256900072097778,0.04840785264968872,2,0.1120431423187256,-0.2082538604736328,0.1925815492868423,0.9523597359657288,-0.4398200809955597,-0.1331990510225296,-0.8881533145904541,10.23885345458984,-4.93792724609375,-33.37423706054688,0,2
1562614121.489189,184,0,309384.9462226667,0.4307764737721567,-0.4600032807988197,0.1324024873187673,-0.05860566347837448,-0.008431826718151569,0.02744521573185921,-0.04941287636756897,-0.004085317254066467,0.04321396350860596,2,0.1115410178899765,-0.2084571570158005,0.1929095983505249,0.9523077607154846,-0.4400654137134552,-0.1320159882307053,-0.8882084488868713,9.606727600097656,-4.620841979980469,-33.60482788085938,0,2
1562614121.521612,185,0,309384.9811966667,0.4314988392289319,-0.4599732197836725,0.1321899019353259,0.03448602557182312,0.03618356585502625,0.00845812726765871,-0.04642114043235779,-0.004525244235992432,0.02451461553573608,2,0.1115128546953201,-0.2084262073040009,0.1932802945375443,0.9522427320480347,-0.4400511682033539,-0.1318052560091019,-0.8882467746734619,8.519432067871094,-3.85894775390625,-34.17147827148438,0,2
1562614121.555839,186,0,309385.0161086667,0.4313555514922406,-0.458585678430418,0.1323334838476065,-0.0126851461827755,0.02794989384710789,0.002143400255590677,-0.03092524409294128,-0.0101657509803772,0.03002148866653442,2,0.111431784927845,-0.2077575325965881,0.1932725012302399,0.9523997902870178,-0.438809871673584,-0.1319475769996643,-0.8888395428657532,8.202072143554688,-3.750320434570312,-33.95401000976562,0,2
1562614121.587032,187,0,309385.0510816667,0.4325028919100217,-0.4586139450209764,0.1324633052180269,0.02539322711527348,0.01997286826372147,0.02507574670016766,-0.02338516712188721,-0.01746794581413269,0.02294421195983887,2,0.1116150692105293,-0.2076925337314606,0.1938019692897797,0.9522849917411804,-0.4388273954391479,-0.1320762634277344,-0.8888117671012878,7.665611267089844,-2.89434814453125,-34.09146118164062,0,2
1562614121.638208,188,0,309385.0860236667,0.4335448474795631,-0.4581509439249421,0.1327183376480889,0.02263712510466576,0.008212441578507423,0.03399638086557388,-0.02921387553215027,-0.02225017547607422,0.0195467472076416,2,0.1117988675832748,-0.207385390996933,0.1942939311265945,0.9522301554679871,-0.43840092420578,-0.132329061627388,-0.8889846205711365,7.048225402832031,-2.9945068359375,-34.04031372070312,0,2
1562614121.652967,189,0,309385.1209666667,0.4354838294930765,-0.4575547009345033,0.133731951149967,0.04137298837304115,0.04138228669762611,0.03384367376565933,-0.03181838989257812,-0.009403243660926819,0.04648172855377197,2,0.1124209016561508,-0.2068792134523392,0.1951313316822052,0.9520957469940186,-0.4378113150596619,-0.1333336979150772,-0.8891250491142273,6.546432495117188,-2.944709777832031,-33.85446166992188,0,2
1562614121.686883,190,0,309385.1559096667,0.4372455521143432,-0.4580023294059807,0.1328457687815757,-0.02415031939744949,-0.03183940425515175,0.08022861182689667,-0.04119428992271423,-0.008711159229278564,0.04192036390304565,2,0.1122280806303024,-0.2070930749177933,0.1960489153862,0.9518834948539734,-0.4382613599300385,-0.1324553638696671,-0.889034628868103,6.521659851074219,-2.951393127441406,-33.91366577148438,0,2
1562614121.718694,191,0,309385.1908826667,0.4398100731539415,-0.4586228192240465,0.1322886991618949,0.04918408021330833,0.02302704192698002,0.05220549926161766,-0.06897526979446411,0.008634477853775024,0.03432869911193848,2,0.1122915297746658,-0.207307368516922,0.197299987077713,0.9515707492828369,-0.4388454854488373,-0.1319031864404678,-0.8888285160064697,5.980361938476562,-2.811630249023438,-34.09652709960938,0,2
1562614121.752697,192,0,309385.2257946667,0.4414716247876953,-0.4580179915114772,0.1329966552640741,-0.003440679050981998,0.02093058824539185,0.03603177890181541,-0.06746461987495422,0.01364022493362427,0.05811554193496704,2,0.1127382591366768,-0.206845760345459,0.1980412155389786,0.9514644742012024,-0.4382664263248444,-0.1326049268245697,-0.8890098333358765,5.778007507324219,-2.883689880371094,-33.75881958007812,0,2
1562614121.796181,193,0,309385.2257946667,0.4414716247876953,-0.4580179915114772,0.1329966552640741,-0.003440679050981998,0.02093058824539185,0.03603177890181541,-0.06746461987495422,0.01364022493362427,0.05811554193496704,2,0.1127382591366768,-0.206845760345459,0.1980412155389786,0.9514644742012024,-0.4382664263248444,-0.1326049268245697,-0.8890098333358765,5.778007507324219,-2.883689880371094,-33.75881958007812,0,2
1562614121.819205,194,0,309385.2607676667,0.4421700086895797,-0.4578521780872452,0.1314236838558628,-0.00556696392595768,0.02239522524178028,0.03257089853286743,-0.06030291318893433,-0.003698825836181641,0.01767933368682861,2,0.1120509430766106,-0.2069066166877747,0.198567658662796,0.9514226317405701,-0.438210666179657,-0.1310456842184067,-0.8892684578895569,5.427703857421875,-2.596893310546875,-34.28402709960938,0,2
1562614121.852599,195,0,309385.2957106667,0.4428854035901799,-0.4559419304226249,0.133440568677912,0.06455963850021362,0.08590837568044662,-0.03576429188251495,-0.04515466094017029,-0.004855304956436157,0.0288662314414978,2,0.1128878444433212,-0.205727756023407,0.198778823018074,0.9515353441238403,-0.4363938868045807,-0.1330448985099792,-0.8898648619651794,5.681060791015625,-2.206008911132812,-33.66946411132812,0,2
1562614121.88453,196,0,309385.3306836667,0.4426676827325039,-0.4541402456095517,0.1348762164369877,0.03314762189984322,0.04716643318533897,-0.005706240888684988,-0.006546765565872192,-0.02628816664218903,0.03874140977859497,2,0.1133648455142975,-0.2047189921140671,0.1986092329025269,0.9517316222190857,-0.4347056746482849,-0.1344676464796066,-0.8904771208763123,5.833534240722656,-2.213478088378906,-33.73367309570312,0,2
1562614121.916763,197,0,309385.3655956667,0.4433652291071179,-0.4525991743300199,0.1351850294737284,0.0004017287865281105,0.05470622330904007,0.0150381913408637,-0.005009979009628296,-0.02752283215522766,0.02986752986907959,2,0.1134288683533669,-0.2039108127355576,0.1989925652742386,0.9518173336982727,-0.4333146810531616,-0.1347736567258835,-0.8911085724830627,5.762191772460938,-1.742652893066406,-33.71310424804688,0,2
1562614121.964997,198,0,309385.4005686667,0.4446383060282518,-0.4516481378740553,0.1351328411599824,0.04395582526922226,0.03697811812162399,0.04157363995909691,-0.01369869709014893,-0.0303058922290802,0.003262758255004883,2,0.1134390607476234,-0.2033919841051102,0.1996584385633469,0.9517876505851746,-0.4324700832366943,-0.1347219496965408,-0.8915265798568726,5.940109252929688,-1.749114990234375,-33.75070190429688,0,2
1562614121.982993,199,0,309385.4355116667,0.4466806174055494,-0.4494047952297265,0.1376734549938718,0.1130020320415497,0.09658822417259216,0.008013621903955936,-0.01612758636474609,-0.01852315664291382,0.03170675039291382,2,0.1146221086382866,-0.2019160836935043,0.2004635334014893,0.951790988445282,-0.4303189218044281,-0.1372389495372772,-0.8921833634376526,5.77880859375,-2.0672607421875,-33.57327270507812,0,2
1562614122.040079,200,0,309385.4704805,0.4483324638341633,-0.4480051767635683,0.1382055274333789,0.004939232487231493,0.01795382983982563,0.05827788636088371,-0.01963788270950317,-0.02879855036735535,0.03650015592575073,2,0.1148993745446205,-0.201093852519989,0.2012684047222137,0.9517617225646973,-0.4290380775928497,-0.1377659738063812,-0.8927187919616699,6.061424255371094,-1.872512817382812,-33.11038208007812,0,2
1562614122.048305,201,0,309385.5053925,0.451446553570654,-0.4475327072722247,0.1398595423913132,0.1255800426006317,0.06089842319488525,0.04770971462130547,-0.03264132142066956,-0.01675161719322205,0.04142469167709351,2,0.1159456223249435,-0.2004974633455276,0.2025863379240036,0.95148104429245,-0.428517073392868,-0.1394040286540985,-0.8927147388458252,6.310958862304688,-1.699790954589844,-33.10549926757812,0,2
1562614122.082188,202,0,309385.5403655,0.4532359124659541,-0.446897554558605,0.1398662496081336,-0.04207978770136833,-0.01171886920928955,0.06167608499526978,-0.05386993288993835,-0.009481757879257202,0.05057686567306519,2,0.1160634979605675,-0.2000907361507416,0.2034736126661301,0.9513630270957947,-0.4279495775699615,-0.139410674571991,-0.8929859399795532,7.271430969238281,-1.95721435546875,-32.53048706054688,0,2
1562614122.11414,203,0,309385.5753085,0.4548551172412254,-0.4461517027369932,0.1392256180978796,0.0388784371316433,0.08497685939073563,0.02245895192027092,-0.05460518598556519,-0.002594426274299622,0.02598279714584351,2,0.1158468052744865,-0.1997170448303223,0.2043608874082565,0.9512777328491211,-0.4273218810558319,-0.1387762725353241,-0.8933852314949036,7.800605773925781,-1.742568969726562,-32.62368774414062,0,2
1562614122.148559,204,0,309385.6102815,0.4550742257502648,-0.4438914461657124,0.1392382986408419,-0.0214698389172554,0.03746309131383896,0.01542290952056646,-0.03424447774887085,-0.002703875303268433,0.02285677194595337,2,0.1156435459852219,-0.1986277103424072,0.2045944780111313,0.9514802098274231,-0.4253007471561432,-0.1387888193130493,-0.8943471908569336,8.401863098144531,-1.442092895507812,-32.24252319335938,0,2
1562614122.193598,205,0,309385.6451935,0.456782627704166,-0.4426758987271877,0.1395224751732215,0.04536886885762215,0.05383507534861565,0.04413013532757759,-0.02074763178825378,-0.0109516829252243,0.02252936363220215,2,0.1158225014805794,-0.1979172080755234,0.2054450064897537,0.9514232873916626,-0.4241963922977448,-0.1390702426433563,-0.8948278427124023,8.662628173828125,-1.38482666015625,-32.14736938476562,0,2
1562614122.214062,206,0,309385.6801665,0.4587985555811651,-0.442845426825188,0.1390921440030444,-0.02309567667543888,-0.009212421253323555,0.06474874913692474,-0.02287408709526062,-0.01977077126502991,0.03250586986541748,2,0.1158362627029419,-0.1979318112134933,0.2064432948827744,0.9512024521827698,-0.4243736863136292,-0.1386440843343735,-0.894809901714325,9.180023193359375,-1.809013366699219,-31.73721313476562,0,2
1562614122.246092,207,0,309385.7151095,0.4606753621217197,-0.4424883048759504,0.1383792151625537,0.04136274382472038,0.034111637622118,0.04312963783740997,-0.03891405463218689,-0.02687126398086548,0.003480434417724609,2,0.1156483888626099,-0.1977376937866211,0.2074380069971085,0.951049268245697,-0.4240963160991669,-0.1379380077123642,-0.8950505256652832,9.575736999511719,-1.985870361328125,-32.34274291992188,0,2
1562614122.279796,208,0,309385.7500825,0.4624827078247042,-0.4405291869381734,0.1406186101230119,0.06717439740896225,0.09169517457485199,0.009288566187024117,-0.02008247375488281,-0.01877579092979431,0.04064983129501343,2,0.1166800111532211,-0.1964351832866669,0.2081557214260101,0.9510363340377808,-0.4222092032432556,-0.1401556432247162,-0.8955979943275452,10.10489654541016,-2.464920043945312,-32.11465454101562,0,2
1562614122.31187,209,0,309385.7849945,0.4638786526781807,-0.4390443968809138,0.1405095208685795,-0.0126879746094346,0.01318807154893875,0.06429602205753326,-0.01054364442825317,-0.02332419157028198,0.03771984577178955,2,0.1166105419397354,-0.195660725235939,0.2089185267686844,0.9510372281074524,-0.4208854734897614,-0.1400476396083832,-0.8962377309799194,10.74730682373047,-2.318412780761719,-32.04067993164062,0,2
1562614122.353841,210,0,309385.7849945,0.4638786526781807,-0.4390443968809138,0.1405095208685795,-0.0126879746094346,0.01318807154893875,0.06429602205753326,-0.01054364442825317,-0.02332419157028198,0.03771984577178955,2,0.1166105419397354,-0.195660725235939,0.2089185267686844,0.9510372281074524,-0.4208854734897614,-0.1400476396083832,-0.8962377309799194,10.74730682373047,-2.318412780761719,-32.04067993164062,0,2
1562614122.377773,211,0,309385.8199675,0.4670676977812005,-0.4396774690103062,0.1395143477725241,0.04263902828097343,0.00731179304420948,0.09360215812921524,-0.03365892171859741,-0.01517100632190704,0.01615536212921143,2,0.116519458591938,-0.1958949416875839,0.2105108499526978,0.9506490230560303,-0.4215118885040283,-0.1390621960163116,-0.8960967659950256,11.21309661865234,-2.433036804199219,-32.18991088867188,0,2
1562614122.41292,212,0,309385.8549105,0.4700559806280159,-0.4390312933666898,0.1411161349847667,0.05062728002667427,0.04149452224373817,0.04564254358410835,-0.04530531167984009,-0.002428501844406128,0.05370044708251953,2,0.1174990013241768,-0.195220097899437,0.2117867916822433,0.9503839015960693,-0.4208375513553619,-0.1406482458114624,-0.896166205406189,12.36585235595703,-2.802314758300781,-31.92025756835938,0,2
1562614122.443579,213,0,309385.8898525,0.4715391297094231,-0.4387830691524587,0.139957198286976,-4.578474909067154e-05,0.00766361691057682,0.0619053840637207,-0.04257491230964661,-0.00882662832736969,0.04000562429428101,2,0.1170708760619164,-0.1951553821563721,0.212637722492218,0.9502599239349365,-0.4206840395927429,-0.1395007371902466,-0.8964175581932068,12.99835968017578,-2.837875366210938,-31.40396118164062,0,2
1562614122.477659,214,0,309385.9247955,0.4733836107931657,-0.4374750017308643,0.140440875488353,-0.0003800485283136368,0.05913225188851357,0.03252354264259338,-0.03738477826118469,-0.003418415784835815,0.04275292158126831,2,0.1173391863703728,-0.1943671107292175,0.2135358601808548,0.950187087059021,-0.4194824993610382,-0.1399796605110168,-0.8969058990478516,13.68439483642578,-2.707000732421875,-31.35848999023438,0,2
1562614122.513354,215,0,309385.9597685,0.4755721089536307,-0.4381474055073887,0.1389136971182652,0.01502044871449471,-0.02233460359275341,0.1003624871373177,-0.03104475140571594,-0.007603168487548828,0.01586860418319702,2,0.116904079914093,-0.1947443634271622,0.2147090882062912,0.9498989582061768,-0.4201756715774536,-0.1384673565626144,-0.8968161344528198,14.02083587646484,-2.568351745605469,-31.52700805664062,0,2
1562614122.543516,216,0,309385.9946805,0.478007448280864,-0.437159941102648,0.1403852199458599,0.04881604388356209,0.06353677809238434,0.01081217918545008,-0.0412198007106781,-0.005396217107772827,0.03781110048294067,2,0.117728017270565,-0.1939525306224823,0.215756893157959,0.9497218728065491,-0.4192031919956207,-0.139924556016922,-0.8970450758934021,14.18656158447266,-2.837471008300781,-31.19015502929688,0,2
1562614122.596382,217,0,309386.0296535,0.4795854562280185,-0.4367550287946791,0.1404782281922295,0.01197109557688236,0.01683360524475574,0.06585827469825745,-0.02175244688987732,-0.02539974451065063,0.02399206161499023,2,0.1178810223937035,-0.1936559081077576,0.2165195196866989,0.949589729309082,-0.4188344180583954,-0.1400166451931,-0.8972029089927673,14.91919708251953,-3.046028137207031,-30.72702026367188,0,2
1562614122.609483,218,0,309386.0645965,0.4821771067351014,-0.4353417735498027,0.1417181269409266,0.02059674635529518,0.04969459027051926,0.04952441900968552,-0.01688599586486816,-0.0188145637512207,0.0533410906791687,2,0.1185620501637459,-0.1926787942647934,0.2176933735609055,0.9494354128837585,-0.4174924790859222,-0.1412442177534103,-0.897635817527771,15.38106536865234,-3.723358154296875,-30.11441040039062,0,2
1562614122.641377,219,0,309386.0995695,0.4846083447759882,-0.4368655152759069,0.1384618771495198,-0.0675562247633934,-0.06031534075737,0.1321956515312195,-0.03339040279388428,-0.01735907793045044,0.002044320106506348,2,0.117429606616497,-0.1936620324850082,0.2191251665353775,0.9490465521812439,-0.4190521240234375,-0.1380198746919632,-0.8974106311798096,15.36634063720703,-3.822906494140625,-30.29312133789062,0,2
1562614122.678309,220,0,309386.1344815,0.4884054456132421,-0.4361871165895574,0.1411687353085336,0.1514746844768524,0.09268641471862793,0.01777243055403233,-0.05015099048614502,0.002415060997009277,0.03427398204803467,2,0.1189962029457092,-0.1927783936262131,0.2206607460975647,0.9486755132675171,-0.4182838797569275,-0.1407003253698349,-0.8973528146743774,16.02570343017578,-4.056503295898438,-30.09848022460938,0,2
1562614122.708027,221,0,309386.1694555,0.4897823038036419,-0.4356440934909304,0.1403849110064015,-0.06566986441612244,-0.02888509258627892,0.07654301822185516,-0.028452068567276,-0.01812225580215454,0.06893348693847656,2,0.1186999157071114,-0.1925372034311295,0.2214346081018448,0.948581337928772,-0.4178429245948792,-0.1399242430925369,-0.8976795077323914,16.61917877197266,-4.246292114257812,-29.33584594726562,0,2
1562614122.753046,222,0,309386.2043975,0.4926929788068686,-0.4370368395230592,0.1386388948237512,0.04898689687252045,0.020834906026721,0.07539042085409164,-0.04986363649368286,-0.01286527514457703,0.02106952667236328,2,0.11831384152174,-0.1932446658611298,0.2229295521974564,0.9481354355812073,-0.4191955327987671,-0.13819520175457,-0.8973166942596436,16.58066558837891,-4.251937866210938,-29.23440551757812,0,2
1562614122.774705,223,0,309386.2393705,0.4947669112915983,-0.4367967137093875,0.1395307054667105,0.04817810282111168,0.02924766577780247,0.0287037193775177,-0.05283248424530029,-0.002047300338745117,0.04008579254150391,2,0.1189066767692566,-0.1928952187299728,0.223825991153717,0.9479212164878845,-0.4189277589321136,-0.1390783935785294,-0.8973052501678467,16.96152496337891,-4.441619873046875,-28.78933715820312,0,2
1562614122.80714,224,0,309386.2742825,0.4962491147401686,-0.4359755991130481,0.1405263514427299,0.01840037107467651,0.01032115519046783,0.03189343959093094,-0.0436345636844635,-0.001090407371520996,0.04526281356811523,2,0.1194255799055099,-0.1922915577888489,0.2244648486375809,0.9478274583816528,-0.4181321263313293,-0.1400642991065979,-0.8975229859352112,17.04967498779297,-4.681533813476562,-28.42837524414062,0,2
1562614122.839298,225,0,309386.3092565,0.4980268805481712,-0.4368160029183116,0.1388440609158898,-0.04377588257193565,-0.01353520713746548,0.08058404177427292,-0.03440281748771667,-0.01119676232337952,0.01979351043701172,2,0.1189003512263298,-0.1927977055311203,0.2254473119974136,0.9475575089454651,-0.4189853668212891,-0.1383983939886093,-0.8973835110664368,16.98600006103516,-5.23370361328125,-28.69082641601562,0,2
1562614122.873067,226,0,309386.3441985,0.5009549371552375,-0.4372821585497437,0.1393717043473406,0.07067918032407761,-0.01187247689813375,0.06455251574516296,-0.05307298898696899,-0.006782397627830505,0.002639949321746826,2,0.1194832697510719,-0.1927766650915146,0.2267467975616455,0.9471783041954041,-0.4193726480007172,-0.138920933008194,-0.897121787071228,17.04415130615234,-5.391731262207031,-28.72134399414062,0,2
1562614122.91889,227,0,309386.3441985,0.5009549371552375,-0.4372821585497437,0.1393717043473406,0.07067918032407761,-0.01187247689813375,0.06455251574516296,-0.05307298898696899,-0.006782397627830505,0.002639949321746826,2,0.1194832697510719,-0.1927766650915146,0.2267467975616455,0.9471783041954041,-0.4193726480007172,-0.138920933008194,-0.897121787071228,17.04415130615234,-5.391731262207031,-28.72134399414062,0,2
1562614122.939566,228,0,309386.3791715,0.5033899600191473,-0.4366214550324428,0.1412191859372997,-0.004033702425658703,0.0390411764383316,0.03911348432302475,-0.03976860642433167,0.004387915134429932,0.06376373767852783,2,0.1205103471875191,-0.1920806020498276,0.2277303338050842,0.9469536542892456,-0.4186705648899078,-0.1407502740621567,-0.8971645832061768,17.00891876220703,-6.312629699707031,-28.27279663085938,0,2
1562614122.973225,229,0,309386.4140835,0.5056025739063469,-0.4385024674390122,0.137739192377859,-0.06662803888320923,-0.08377420902252197,0.1428229957818985,-0.04139837622642517,-0.01612260937690735,0.0161861777305603,2,0.1193041279911995,-0.1932867467403412,0.2290593087673187,0.9465402960777283,-0.4205628335475922,-0.1373040676116943,-0.8968135118484497,16.65595245361328,-6.631843566894531,-28.70834350585938,0,2
1562614123.004884,230,0,309386.4490575,0.5092343828455169,-0.4388447416074311,0.1389845691433745,0.09494917094707489,0.05979233235120773,0.02488850615918636,-0.07735806703567505,0.01381438970565796,0.03599739074707031,2,0.1202787905931473,-0.1930699050426483,0.2306158244609833,0.9460832476615906,-0.4207967817783356,-0.1385375410318375,-0.8965140581130981,16.78867340087891,-6.848731994628906,-28.24563598632812,0,2
1562614123.036829,231,0,309386.4839921667,0.5102355690535231,-0.4389054095766784,0.1389415410531516,-0.01230090670287609,-0.0156619343906641,0.04690877348184586,-0.05624380707740784,-0.01431965827941895,0.05326539278030396,2,0.1203622668981552,-0.193043977022171,0.2310906499624252,0.9459619522094727,-0.4208537042140961,-0.1384949386119843,-0.8964939117431641,16.76963043212891,-6.918815612792969,-28.36526489257812,0,2
1562614123.074649,232,0,309386.5189651667,0.5116607563286162,-0.4383643020461246,0.1394162067795348,0.06168172881007195,0.0722297728061676,0.008048402145504951,-0.05112707614898682,-0.02189026772975922,0.02131384611129761,2,0.120659738779068,-0.1926403045654297,0.2317433804273605,0.9458467364311218,-0.4203405976295471,-0.1389650106430054,-0.8966618776321411,16.13520050048828,-6.758293151855469,-28.57211303710938,0,2
1562614123.102637,233,0,309386.5538771667,0.5131354474550425,-0.4376597764540514,0.1395438387125758,-0.002407814841717482,0.03334613144397736,0.05731670930981636,-0.02218037843704224,-0.01904752850532532,0.04529094696044922,2,0.120779737830162,-0.1922014504671097,0.2324688136577606,0.9457426071166992,-0.4197012484073639,-0.1390914022922516,-0.8969417214393616,15.80414581298828,-6.830307006835938,-28.20236206054688,0,2
1562614123.156466,234,0,309386.5888511667,0.5160155970074195,-0.4387467674189675,0.1392655193626002,0.04727905243635178,-0.03921522945165634,0.08463050425052643,-0.04183283448219299,-0.007650569081306458,0.0310441255569458,2,0.1210529804229736,-0.1925777196884155,0.2337962985038757,0.9453038573265076,-0.4206924140453339,-0.138815775513649,-0.8965200185775757,15.19663238525391,-7.215507507324219,-28.20425415039062,0,2
1562614123.168669,235,0,309386.6237931667,0.5196535694334764,-0.4399181623073471,0.1392030905212169,0.0320468358695507,0.004612857475876808,0.09190774708986282,-0.06258243322372437,-0.004691183567047119,0.03786683082580566,2,0.1215117499232292,-0.1929188519716263,0.2354513704776764,0.9447644948959351,-0.4217459857463837,-0.1387539505958557,-0.8960344195365906,14.58507537841797,-7.557815551757812,-28.57131958007812,0,2
1562614123.202649,236,0,309386.6587361667,0.5230250014770685,-0.4401329599017589,0.1390166159435639,0.02179586701095104,0.002008842304348946,0.09484218060970306,-0.07493636012077332,0.01982793211936951,0.0573306679725647,2,0.1217749416828156,-0.1928400099277496,0.2370518147945404,0.9443463087081909,-0.4219494462013245,-0.1385692805051804,-0.8959671854972839,13.52832794189453,-8.321357727050781,-28.55404663085938,0,2
1562614123.234732,237,0,309386.6936781667,0.5254925953389985,-0.4401776510484385,0.1373845294529668,-0.0644700825214386,-0.01756234839558601,0.08041432499885559,-0.0807206928730011,0.0316978394985199,0.03604632616043091,2,0.121254101395607,-0.1929289400577545,0.2383999526500702,0.9440557360649109,-0.4220852851867676,-0.1369527578353882,-0.8961517214775085,12.87871551513672,-9.024749755859375,-28.64120483398438,0,2
1562614123.268847,238,0,309386.7286521667,0.5280201591478837,-0.4405441951744556,0.1370509134424492,0.05536124110221863,0.0004550926387310028,0.0576949417591095,-0.08465981483459473,0.02521765232086182,0.02181822061538696,2,0.1213856190443039,-0.1929932981729507,0.2396085858345032,0.9437196254730225,-0.4224331974983215,-0.136622279882431,-0.8960382342338562,11.74636077880859,-9.408157348632812,-29.34481811523438,0,2
1562614123.300941,239,0,309386.7635641667,0.5294841613824944,-0.4384808326405073,0.1387240394121214,0.02740187756717205,0.06651692092418671,0.008767800405621529,-0.0642407238483429,0.0116795152425766,0.05397486686706543,2,0.1220618039369583,-0.1917055994272232,0.2402346581220627,0.9437357783317566,-0.4204858243465424,-0.138279527425766,-0.8966997861862183,11.43842315673828,-9.650222778320312,-29.25448608398438,0,2
1562614123.334375,240,0,309386.7985371667,0.5309121097217561,-0.43801049482037,0.1381113000348062,-0.03131182864308357,0.02377033047378063,0.05767616629600525,-0.03793951869010925,-0.01094664633274078,0.03195643424987793,2,0.121855303645134,-0.1914792060852051,0.2410066276788712,0.9436116218566895,-0.4200998842716217,-0.1376726478338242,-0.8969739675521851,10.93895721435547,-9.603225708007812,-29.55545043945312,0,2
1562614123.366246,241,0,309386.8334801667,0.5326010071911804,-0.4378467973283577,0.1379805240497436,0.05564353615045547,0.02690950967371464,0.03992602229118347,-0.04135945439338684,-0.03085172176361084,0.0004711151123046875,2,0.1219359934329987,-0.1913167238235474,0.2418281883001328,0.9434239268302917,-0.4199606776237488,-0.137543112039566,-0.8970590233802795,9.513763427734375,-9.449607849121094,-30.34011840820312,0,2
1562614123.400324,242,0,309386.8684531667,0.5341581931271278,-0.4344291195472048,0.1423721848642286,0.1100099831819534,0.1484604030847549,-0.03862690180540085,-0.01576018333435059,-0.01453395187854767,0.05304265022277832,2,0.1237246170639992,-0.1890131384134293,0.2422759681940079,0.9435405135154724,-0.4166341125965118,-0.1418916881084442,-0.8979325294494629,8.523277282714844,-9.2523193359375,-30.41201782226562,0,2
1562614123.43252,243,0,309386.9033651667,0.5351430621572498,-0.4326451297725183,0.1433021495738211,0.02089125290513039,0.003618828952312469,0.06024452671408653,-0.0001476109027862549,-0.03416568040847778,0.035400390625,2,0.1240361034870148,-0.1879839599132538,0.2427463531494141,0.9435842633247375,-0.41497603058815,-0.142812192440033,-0.8985541462898254,7.854461669921875,-9.107383728027344,-30.74130249023438,0,2
1562614123.466109,244,0,309386.9383381667,0.539187105291447,-0.4330092728081607,0.1450755357516278,0.1558771282434464,0.05740117281675339,0.06675352156162262,-0.03314542770385742,-0.02648773789405823,0.01899564266204834,2,0.1252893805503845,-0.187661200761795,0.2444314062595367,0.943047821521759,-0.4151962995529175,-0.1445671766996384,-0.8981716632843018,6.995384216308594,-9.193550109863281,-30.92227172851562,0,2
1562614123.498216,245,0,309386.9383381667,0.539187105291447,-0.4330092728081607,0.1450755357516278,0.1558771282434464,0.05740117281675339,0.06675352156162262,-0.03314542770385742,-0.02648773789405823,0.01899564266204834,2,0.1252893805503845,-0.187661200761795,0.2444314062595367,0.943047821521759,-0.4151962995529175,-0.1445671766996384,-0.8981716632843018,6.995384216308594,-9.193550109863281,-30.92227172851562,0,2
1562614123.548148,246,0,309386.9732811667,0.542759542012354,-0.431453603625595,0.148055871787128,0.0884021520614624,0.06279627978801727,0.05108742788434029,-0.04914715886116028,0.003747612237930298,0.06589162349700928,2,0.1268252283334732,-0.1862922012805939,0.2458780854940414,0.942737877368927,-0.4136165082454681,-0.1475155502557755,-0.8984211683273315,6.820945739746094,-9.690017700195312,-30.99179077148438,0,2
1562614123.564704,247,0,309387.0082541667,0.5451677050294363,-0.4305994872839849,0.1476819273181352,0.01035266555845737,0.009917678311467171,0.08034584671258926,-0.05530950427055359,-0.0009715259075164795,0.04838132858276367,2,0.1267693191766739,-0.1857887506484985,0.2471092790365219,0.9425227642059326,-0.4128720164299011,-0.147145688533783,-0.898824155330658,5.888534545898438,-9.318878173828125,-31.78829956054688,0,2
1562614123.598024,248,0,309387.0431661667,0.5486024465942917,-0.4314221539123115,0.1476590133353591,0.08331111818552017,0.0159851461648941,0.07776889950037003,-0.07541123032569885,0.003827571868896484,0.01685500144958496,2,0.127179816365242,-0.1859614700078964,0.2486778646707535,0.9420206546783447,-0.4136126935482025,-0.1471230238676071,-0.8984872698783875,4.430274963378906,-9.020576477050781,-32.25411987304688,0,2
1562614123.629976,249,0,309387.0781391667,0.5511994170845051,-0.4297874466665916,0.1498770364907127,0.06607654690742493,0.06462833285331726,0.02634181827306747,-0.06975662708282471,0.01397413015365601,0.06792128086090088,2,0.1282518208026886,-0.1847154647111893,0.2497560679912567,0.9418352246284485,-0.4120064079761505,-0.1493165493011475,-0.8988633155822754,4.205947875976562,-8.845565795898438,-32.60073852539062,0,2
1562614123.66404,250,0,309387.1130821667,0.5519050717498659,-0.4292149692133978,0.1479390164336724,-0.0944177582859993,0.0009646397083997726,0.05299875140190125,-0.05094122886657715,-0.00855979323387146,0.03776425123214722,2,0.1273411512374878,-0.1846726536750793,0.2503422796726227,0.9418115019798279,-0.411611407995224,-0.147399976849556,-0.8993604779243469,4.156768798828125,-8.105972290039062,-32.74331665039062,0,2
1562614123.717745,251,0,309387.1480551667,0.5538969517209813,-0.4286429365823048,0.1484409307688035,0.0922742560505867,0.05950545519590378,0.03449385613203049,-0.04092830419540405,-0.02355033159255981,-0.006867408752441406,2,0.1276872605085373,-0.1842057555913925,0.2512604296207428,0.941611647605896,-0.411066085100174,-0.1478963941335678,-0.8995283842086792,3.401573181152344,-7.352264404296875,-33.80453491210938,0,2
1562614123.729989,252,0,309387.1829671667,0.5557437808951949,-0.4264182540820068,0.1508960189728468,0.0377894714474678,0.06095380708575249,0.03096569143235683,-0.01546651124954224,-0.02214148640632629,0.04650777578353882,2,0.1287219673395157,-0.182693675160408,0.2519982159137726,0.9415680766105652,-0.4089124798774719,-0.1503240317106247,-0.9001073241233826,3.747352600097656,-6.963104248046875,-33.83450317382812,0,2
1562614123.761862,253,0,309387.2179401667,0.5592782765769587,-0.4274542705379484,0.1494819929287168,0.006700497586280107,-0.03371601924300194,0.1389455497264862,-0.02295941114425659,-0.02863806486129761,0.03709006309509277,2,0.1285168826580048,-0.183154359459877,0.2537529468536377,0.941035270690918,-0.4099324941635132,-0.1489259153604507,-0.8998757600784302,4.041824340820312,-6.397628784179688,-34.37277221679688,0,2
1562614123.802338,254,0,309387.2528831667,0.563806789338977,-0.4286851979917787,0.1484544350782351,0.06799329072237015,0.009727470576763153,0.1159905269742012,-0.06203973293304443,-0.006416589021682739,0.02537047863006592,2,0.1286101192235947,-0.1835887581110001,0.2559187114238739,0.940351128578186,-0.4111032783985138,-0.1479097455739975,-0.8995091915130615,4.225364685058594,-6.538459777832031,-34.94680786132812,0,2
1562614123.827843,255,0,309387.2878561667,0.56742068286813,-0.4282456842290667,0.1491603219382619,0.1020035818219185,0.0745704248547554,0.05410031601786613,-0.06832343339920044,-0.003840714693069458,0.0597119927406311,2,0.1292136460542679,-0.183047890663147,0.2575668096542358,0.9399237632751465,-0.4106644093990326,-0.1486078351736069,-0.8995946049690247,4.365997314453125,-6.60296630859375,-34.93295288085938,0,2
1562614123.884752,256,0,309387.3227681667,0.5692861636440856,-0.4270005475508558,0.1486780860931318,-0.02067139931023121,0.01413533464074135,0.06429345905780792,-0.06303754448890686,0.003021210432052612,0.04750168323516846,2,0.1289989501237869,-0.1824118793010712,0.2585777342319489,0.9397992491722107,-0.4095736145973206,-0.148130938410759,-0.9001703262329102,4.875091552734375,-6.537208557128906,-34.99850463867188,0,2
1562614123.893719,257,0,309387.3577411667,0.5719947371574819,-0.4275222375546915,0.1471514850118323,0.06361062079668045,0.04118674248456955,0.07101760804653168,-0.05421888828277588,-0.00532686710357666,0.009391427040100098,2,0.1286033391952515,-0.1827033907175064,0.2599869966506958,0.939408004283905,-0.4101364612579346,-0.1466210037469864,-0.9001613259315491,5.30877685546875,-6.173454284667969,-35.23977661132812,0,2
1562614123.927536,258,0,309387.3926531667,0.5735959848955069,-0.4244954601235957,0.1500716520483534,0.05695893988013268,0.08302393555641174,-0.006506294012069702,-0.04095333814620972,0.006140738725662231,0.04743683338165283,2,0.1297135949134827,-0.180754229426384,0.2606093883514404,0.9394600391387939,-0.4072319269180298,-0.1495089828968048,-0.9010046124458313,6.062461853027344,-5.748588562011719,-34.79806518554688,0,2
1562614123.959475,259,0,309387.4276261667,0.5750789434416222,-0.4244604052468769,0.1496789472783764,-0.008188774809241295,-0.02413097023963928,0.07696781307458878,-0.02710568904876709,-0.02821412682533264,0.001255214214324951,2,0.129660353064537,-0.1806987971067429,0.2613518238067627,0.9392716884613037,-0.4072244763374329,-0.1491206735372543,-0.9010722637176514,6.439956665039062,-5.573158264160156,-34.99508666992188,0,2
1562614123.993419,260,0,309387.4625876667,0.5787746967298751,-0.4239308288144544,0.1518155740232243,0.1020853370428085,0.0591241717338562,0.06069601699709892,-0.04033482074737549,-0.02957770228385925,0.01243913173675537,2,0.1309176683425903,-0.1798968911170959,0.2628841996192932,0.9388235211372375,-0.4066152274608612,-0.1512330770492554,-0.9009953737258911,6.650909423828125,-5.641265869140625,-34.88198852539062,0,2
1562614124.03255,261,0,309387.4975606667,0.5811005040479524,-0.4214995852091972,0.1527673424046965,-0.002577624749392271,0.07331777364015579,0.06024850159883499,-0.02162331342697144,-0.005365937948226929,0.06790578365325928,2,0.1312481760978699,-0.1784633249044418,0.2640297412872314,0.9387295246124268,-0.4043644368648529,-0.1521738320589066,-0.9018495082855225,7.263298034667969,-5.260993957519531,-34.56454467773438,0,2
1562614124.059311,262,0,309387.5324726667,0.5841672364038839,-0.4223965206291518,0.1503387632633277,-0.0320122055709362,-0.04415939748287201,0.1278689652681351,-0.03567755222320557,-0.01506385207176208,0.02217704057693481,2,0.1305125057697296,-0.1790420114994049,0.2656787931919098,0.9382565021514893,-0.4053234755992889,-0.1497730761766434,-0.9018208980560303,7.920272827148438,-5.204345703125,-34.84518432617188,0,2
1562614124.092984,263,0,309387.5324726667,0.5841672364038839,-0.4223965206291518,0.1503387632633277,-0.0320122055709362,-0.04415939748287201,0.1278689652681351,-0.03567755222320557,-0.01506385207176208,0.02217704057693481,2,0.1305125057697296,-0.1790420114994049,0.2656787931919098,0.9382565021514893,-0.4053234755992889,-0.1497730761766434,-0.9018208980560303,7.920272827148438,-5.204345703125,-34.84518432617188,0,2
1562614124.125475,264,0,309387.5674456667,0.5881002498055585,-0.4221880329698351,0.1519450609985878,0.1563700586557388,0.08654782176017761,0.0465557761490345,-0.06275960803031921,-0.004913419485092163,0.028830885887146,2,0.1315822452306747,-0.1784481406211853,0.2673592269420624,0.9377427101135254,-0.4050363302230835,-0.1513610631227493,-0.9016847610473633,8.445358276367188,-5.277114868164062,-34.98825073242188,0,2
1562614124.157734,265,0,309387.6023886667,0.5899689026904077,-0.419757392614057,0.1537951359682914,0.0439574234187603,0.07005058228969574,0.0227980874478817,-0.04402869939804077,0.006454557180404663,0.08251971006393433,2,0.1322816908359528,-0.1769092977046967,0.2681912481784821,0.9376982450485229,-0.4027286469936371,-0.1531895697116852,-0.9024093151092529,9.1959228515625,-5.37994384765625,-34.46890258789062,0,2
1562614124.198275,266,0,309387.6373616667,0.5915161483785846,-0.4191483622195629,0.1523307775698954,-0.001522047445178032,0.02954260818660259,0.06282838433980942,-0.02861902117729187,-0.02200287580490112,0.03339362144470215,2,0.1316569298505783,-0.1767406761646271,0.2691181302070618,0.9375525116920471,-0.4022698700428009,-0.1517423242330551,-0.9028583765029907,9.798225402832031,-5.354103088378906,-34.76351928710938,0,2
1562614124.223254,267,0,309387.6722736667,0.5943258222836735,-0.4190653354353407,0.1534886140203726,0.1224402338266373,0.03938381746411324,0.04624174907803535,-0.04115599393844604,-0.01791189610958099,0.00407564640045166,2,0.1324310451745987,-0.1763425320386887,0.2703129947185516,0.9371745586395264,-0.4021231234073639,-0.1528866589069366,-0.9027306437492371,9.912010192871094,-5.221343994140625,-34.94827270507812,0,2
1562614124.26753,268,0,309387.7072466667,0.5968948365746681,-0.4167609632171301,0.1576496910302598,0.1061190515756607,0.09337887912988663,0.01358180679380894,-0.02229213714599609,-0.009995743632316589,0.07785147428512573,2,0.1342743337154388,-0.174464076757431,0.2712125778198242,0.937004029750824,-0.3997808694839478,-0.156997486948967,-0.9030653834342957,11.20122528076172,-5.300636291503906,-33.65536499023438,0,2
1562614124.289109,269,0,309387.7421896667,0.5983825361617676,-0.4160941806931409,0.1546050834129544,-0.1622632890939713,-0.0348723791539669,0.121312327682972,-0.01226648688316345,-0.03212690353393555,0.03451496362686157,2,0.1329016834497452,-0.1745129376649857,0.2722880840301514,0.9368786215782166,-0.3993699848651886,-0.1539899110794067,-0.9037647247314453,11.90753936767578,-5.062232971191406,-33.49575805664062,0,2
1562614124.323077,270,0,309387.7771626667,0.6028280649370268,-0.4170765586962573,0.1542687108697979,0.1625337898731232,0.06601221859455109,0.08420893549919128,-0.03897500038146973,-0.006062060594558716,-0.00878453254699707,2,0.1332681477069855,-0.1747282296419144,0.2743412852287292,0.936187207698822,-0.4002785682678223,-0.153657540678978,-0.9034193158149719,11.89409637451172,-4.779899597167969,-33.62289428710938,0,2
1562614124.354919,271,0,309387.8120746667,0.6048938099703273,-0.4137704813916463,0.1578494504703008,0.01069053262472153,0.06539411097764969,0.01661008782684803,-0.02702516317367554,-0.003999799489974976,0.07095921039581299,2,0.1346523016691208,-0.1724954843521118,0.2751376330852509,0.9361695051193237,-0.3970658481121063,-0.1571947634220123,-0.904228150844574,12.64485931396484,-4.601470947265625,-32.93551635742188,0,2
1562614124.388927,272,0,309387.8470476667,0.6079802561576128,-0.4155772750147445,0.1559219531318798,0.06105149537324905,-0.02793699502944946,0.1214394643902779,-0.02369624376296997,-0.0295117199420929,0.0131574273109436,2,0.1342757940292358,-0.1734290271997452,0.2766712605953217,0.9355989694595337,-0.398820549249649,-0.1552909314632416,-0.9037847518920898,12.46910858154297,-4.285446166992188,-33.30697631835938,0,2
1562614124.437863,273,0,309387.8819906667,0.612110030748815,-0.4147281509867129,0.158895926457074,0.1137568354606628,0.04919090867042542,0.0550294890999794,-0.04357394576072693,-0.00592513382434845,0.06412482261657715,2,0.1358912885189056,-0.1722943782806396,0.2783342301845551,0.935081958770752,-0.3978651165962219,-0.1582281440496445,-0.9036964178085327,12.79969024658203,-4.67608642578125,-32.81124877929688,0,2
1562614124.454692,274,0,309387.9169636667,0.614882236828633,-0.4164090903711708,0.1566216362654523,-0.01707223989069462,-0.02498018741607666,0.1014077812433243,-0.04563158750534058,-0.01620054244995117,0.0563957691192627,2,0.1353134214878082,-0.1732446700334549,0.2797654271125793,0.9345629811286926,-0.3995281457901001,-0.1559820920228958,-0.9033530950546265,12.71900177001953,-4.497589111328125,-33.14901733398438,0,2
1562614124.486855,275,0,309387.9518756667,0.6179317437340346,-0.4168986145629963,0.1565296820921641,0.06119557470083237,0.02821628749370575,0.06318175047636032,-0.06601101160049438,0.0009968280792236328,0.0288691520690918,2,0.1356037557125092,-0.1732811331748962,0.2811670005321503,0.9340933561325073,-0.3999761044979095,-0.1558912545442581,-0.9031705260276794,13.03630828857422,-4.275215148925781,-33.21286010742188,0,2
1562614124.520728,276,0,309387.9868486667,0.6204789357053506,-0.4167683459860392,0.1566074708925291,0.05039262399077415,0.03626721352338791,0.05923544615507126,-0.0369894802570343,0.002584367990493774,0.05530792474746704,2,0.135841891169548,-0.1730352938175201,0.2823567390441895,0.9337453246116638,-0.399853527545929,-0.1559680998325348,-0.9032115340232849,13.13976287841797,-4.071495056152344,-33.17092895507812,0,2
1562614124.552668,277,0,309388.0217916667,0.6231869293547195,-0.4176806709858428,0.15551185917427,-0.04258940741419792,-0.06133852154016495,0.1031898781657219,-0.04103907942771912,-0.003214448690414429,0.04278421401977539,2,0.1356995850801468,-0.1734491735696793,0.2836792469024658,0.9332882761955261,-0.4007464647293091,-0.1548857986927032,-0.9030020236968994,13.81685638427734,-3.449211120605469,-32.47323608398438,0,2
1562614124.597625,278,0,309388.0567346667,0.6265154317533314,-0.4201831528161281,0.1534581830610679,0.01862430572509766,-0.03381511569023132,0.09398715198040009,-0.0580269992351532,-0.01395943760871887,-0.002443790435791016,2,0.1353973895311356,-0.1747144013643265,0.2852886915206909,0.9326053857803345,-0.4031338691711426,-0.1528565883636475,-0.9022848606109619,14.02445220947266,-3.169517517089844,-32.62765502929688,0,2
1562614124.618527,279,0,309388.0916766667,0.629166715230967,-0.4192244047901629,0.1555271674368203,0.03907065838575363,0.05182138085365295,0.0325767770409584,-0.0423302948474884,-0.008402615785598755,0.04098659753799438,2,0.1364457011222839,-0.1737599074840546,0.2863614857196808,0.9323020577430725,-0.4021390378475189,-0.154900923371315,-0.902380108833313,13.97815704345703,-2.993736267089844,-32.45236206054688,0,2
1562614124.652719,280,0,309388.0916766667,0.629166715230967,-0.4192244047901629,0.1555271674368203,0.03907065838575363,0.05182138085365295,0.0325767770409584,-0.0423302948474884,-0.008402615785598755,0.04098659753799438,2,0.1364457011222839,-0.1737599074840546,0.2863614857196808,0.9323020577430725,-0.4021390378475189,-0.154900923371315,-0.902380108833313,13.97815704345703,-2.993736267089844,-32.45236206054688,0,2
1562614124.684953,281,0,309388.1266496667,0.6308572563371948,-0.4189185363271766,0.1533279846536149,-0.05614647641777992,-0.002612588927149773,0.1037391796708107,-0.008609652519226074,-0.02650898694992065,0.02446663379669189,2,0.1355346292257309,-0.1738514006137848,0.2874127626419067,0.932094395160675,-0.4020006060600281,-0.1527279168367386,-0.902812123298645,14.39774322509766,-2.190521240234375,-32.18899536132812,0,2
1562614124.718504,282,0,309388.1615616667,0.635836685496973,-0.4209099679079752,0.1529504618909477,0.09460032731294632,-0.03891076147556305,0.1337741166353226,-0.02645504474639893,-0.01562166213989258,0.0223882794380188,2,0.1360815912485123,-0.1745011210441589,0.2896387577056885,0.9312037825584412,-0.40382120013237,-0.1523548066616058,-0.9020622968673706,14.30942535400391,-2.097892761230469,-31.68771362304688,0,2
1562614124.752313,283,0,309388.1965356667,0.6404503720862195,-0.4227326189055164,0.1525767875423146,0.01703592389822006,-0.02027208730578423,0.1222661435604095,-0.05881291627883911,-0.01284821331501007,0.0665014386177063,2,0.1365776807069778,-0.1750948578119278,0.2917031049728394,0.9303749799728394,-0.4054880142211914,-0.1519854813814163,-0.9013766646385193,14.27635955810547,-2.189109802246094,-31.39407348632812,0,2
1562614124.784212,284,0,309388.2314776667,0.6444034235942131,-0.4248111687508798,0.1500668157311053,0.05856668576598167,-0.005594350397586823,0.1145040169358253,-0.07300156354904175,0.0050220787525177,0.05496859550476074,2,0.136074498295784,-0.1761971116065979,0.2936785817146301,0.9296188354492188,-0.4075166285037994,-0.1495041996240616,-0.9008766412734985,14.19130706787109,-2.269119262695312,-31.28512573242188,0,2
1562614124.819794,285,0,309388.2664506667,0.6473045832407969,-0.4253271055025142,0.1487649537961396,-0.0457063764333725,-0.009496468119323254,0.09048102051019669,-0.07318845391273499,0.007776439189910889,0.06788945198059082,2,0.1358077526092529,-0.1764507442712784,0.295136570930481,0.9291478991508484,-0.4080613553524017,-0.1482168436050415,-0.9008427858352661,14.09696197509766,-2.320915222167969,-31.10220336914062,0,2
