loggingTime,loggingSample,identifierForVendor,motionTimestamp_sinceReboot,motionYaw,motionRoll,motionPitch,motionRotationRateX,motionRotationRateY,motionRotationRateZ,motionUserAccelerationX,motionUserAccelerationY,motionUserAccelerationZ,motionAttitudeReferenceFrame,motionQuaternionX,motionQuaternionY,motionQuaternionZ,motionQuaternionW,motionGravityX,motionGravityY,motionGravityZ,motionMagneticFieldX,motionMagneticFieldY,motionMagneticFieldZ,motionMagneticFieldCalibrationAccuracy,label
1562613903.715448,1,0,309167.144804125,-0.0331811969882992,0.04175637149444981,0.4926738710573477,0.0344943106174469,-0.1779737174510956,-0.1093558743596077,0.03113450482487679,0.01031965017318726,0.03927940130233765,2,0.2441023141145706,0.01619905978441238,-0.01099537964910269,0.9695518016815186,0.03677964955568314,-0.4729834496974945,-0.8803033232688904,115.9395904541016,-38.77455520629883,-24.77883911132812,0,2
1562613903.715958,2,0,309167.179777125,-0.03954296168448686,0.03205594597633715,0.4897900144337667,-0.1347366869449615,-0.3703862726688385,-0.171444371342659,0.006851891055703163,0.02181145548820496,0.02015888690948486,2,0.2426833659410477,0.01075328234583139,-0.01529271434992552,0.9699253439903259,0.02828233689069748,-0.4704405963420868,-0.8819782733917236,115.5226287841797,-38.26524353027344,-26.68106079101562,0,2
1562613903.746044,3,0,309167.214720125,-0.04377278357874016,0.02780705112061078,0.4866396414170142,-0.05440085753798485,-0.1130710244178772,-0.07613886147737503,-0.004466533660888672,0.03324654698371887,-0.008172154426574707,2,0.2411403059959412,0.008218239992856979,-0.01788913644850254,0.9702905416488647,0.02457574382424355,-0.4676582813262939,-0.8835676312446594,115.0343322753906,-36.77700042724609,-29.46011352539062,0,2
1562613903.790151,4,0,309167.214720125,-0.04377278357874016,0.02780705112061078,0.4866396414170142,-0.05440085753798485,-0.1130710244178772,-0.07613886147737503,-0.004466533660888672,0.03324654698371887,-0.008172154426574707,2,0.2411403059959412,0.008218239992856979,-0.01788913644850254,0.9702905416488647,0.02457574382424355,-0.4676582813262939,-0.8835676312446594,115.0343322753906,-36.77700042724609,-29.46011352539062,0,2
1562613903.812737,5,0,309167.249662125,-0.0442147133652763,0.02086697220762378,0.4900743218050029,0.184314101934433,-0.2725235223770142,0.02704576961696148,0.02180361934006214,0.03001222014427185,0.003791928291320801,2,0.2427436262369156,0.004756816197186708,-0.0189136378467083,0.9698944687843323,0.01840955018997192,-0.4706914722919464,-0.882105827331543,114.6018829345703,-36.63233184814453,-31.47219848632812,0,2
1562613903.844583,6,0,309167.2846230417,-0.04149648889088316,0.00668408592127505,0.4975529938978493,0.226705864071846,-0.3954558074474335,0.08016892522573471,0.02498717419803143,0.01866179704666138,9.465217590332031e-05,2,0.2462311387062073,-0.001869749627076089,-0.01928524859249592,0.9690174460411072,0.005873617250472307,-0.4772766530513763,-0.8787334561347961,111.9480285644531,-37.17312240600586,-32.48471069335938,0,2
1562613903.877927,7,0,309167.3195960417,-0.03602203982596604,-0.00628837081926464,0.5053744831406642,0.2152009755373001,-0.2073230743408203,0.1759672164916992,-0.01579177379608154,0.0280773937702179,-0.004537522792816162,2,0.2499101459980011,-0.007546450942754745,-0.01822397299110889,0.9680681228637695,-0.005502245854586363,-0.4841351509094238,-0.8749759197235107,110.4187927246094,-39.41693878173828,-34.13198852539062,0,2
1562613903.909918,8,0,309167.3545080417,-0.03348372122275488,-0.01073655131331516,0.5085031989147073,0.02538080886006355,-0.07386667281389236,-0.01897331327199936,-0.007531723007559776,-0.01079457998275757,-0.002597332000732422,2,0.2513952851295471,-0.009405616670846939,-0.0175526887178421,0.9676796197891235,-0.009377921000123024,-0.4868703782558441,-0.8734238743782043,110.4251098632812,-40.22351455688477,-34.46688842773438,0,2
1562613903.959831,9,0,309167.3894820417,-0.03613407894580167,-0.01031888690935477,0.5087990684659376,0.02864828146994114,-0.02912354096770287,-0.06555931270122528,-0.001474537886679173,0.005791336297988892,-0.009589016437530518,2,0.2515296936035156,-0.009539069607853889,-0.01878259144723415,0.9676202535629272,-0.00901163462549448,-0.4871287941932678,-0.8732836246490479,110.4440612792969,-40.33174514770508,-35.43569946289062,0,2
1562613903.975941,10,0,309167.4244240417,-0.03827730530053942,-0.01218919792838456,0.5146283074078479,0.2611774504184723,-0.1257098317146301,-0.06184272468090057,0.005237765610218048,0.01011747121810913,-0.006071925163269043,2,0.2543199360370636,-0.01076292525976896,-0.02005776204168797,0.9668521881103516,-0.010610138066113,-0.4922113418579102,-0.8704110383987427,109.2877044677734,-39.701904296875,-34.58865356445312,0,2
1562613904.009598,11,0,309167.4593970417,-0.04131839616924846,-0.01741702906003262,0.5286560853874207,0.4439483284950256,-0.1879426687955856,-0.08761682361364365,-0.01230060309171677,0.01147711277008057,0.005645990371704102,2,0.2610214054584503,-0.01380100101232529,-0.02221417240798473,0.9649786949157715,-0.01503859460353851,-0.5043733716011047,-0.8633547425270081,106.3750915527344,-39.91435241699219,-33.52523803710938,0,2
1562613904.041784,12,0,309167.4943090417,-0.04499221585427343,-0.02061693213286307,0.5417617827598109,0.313008725643158,-0.1433752328157425,-0.1216521188616753,-0.0189497210085392,0.01466232538223267,0.01510673761367798,2,0.2672749757766724,-0.01594857312738895,-0.02443041652441025,0.9631785154342651,-0.01766336709260941,-0.5156462788581848,-0.8566194772720337,105.3265533447266,-40.3475456237793,-33.26486206054688,0,2
1562613904.075623,13,0,309167.5292830417,-0.05061076848243294,-0.02105646618772007,0.5487918773052837,0.1457398384809494,-0.04807650297880173,-0.1106517091393471,-0.03609038144350052,0.02084857225418091,0.02438819408416748,2,0.2706073224544525,-0.01698670350015163,-0.02720655687153339,0.9621554017066956,-0.0179631095379591,-0.52165687084198,-0.8529662489891052,104.191162109375,-40.63862991333008,-33.90524291992188,0,2
1562613904.116037,14,0,309167.5641950417,-0.05448440322024293,-0.02612559715939897,0.5495515206056927,-0.04263193532824516,-0.3521018326282501,-0.1181633770465851,-0.00854763388633728,0.002286553382873535,0.02800899744033813,2,0.2708648443222046,-0.01995785161852837,-0.02975768782198429,0.9619503021240234,-0.02227629907429218,-0.5223048329353333,-0.8524678349494934,103.2174224853516,-40.15201568603516,-34.79037475585938,0,2
1562613904.141279,15,0,309167.5991680417,-0.05982028669347975,-0.04634422227711336,0.5491181679712137,0.02243475429713726,-0.8722730278968811,-0.1251488476991653,0.01072972267866135,-0.01952201128005981,0.01866817474365234,2,0.2702615857124329,-0.03039815463125706,-0.0350569449365139,0.9616681337356567,-0.03951678052544594,-0.5219352245330811,-0.8520692586898804,99.4149169921875,-38.59423065185547,-37.46755981445312,0,2
1562613904.175092,16,0,309167.6341100417,-0.05986971834537288,-0.07635049193460759,0.5526864205629969,0.1143203973770142,-0.6983256340026855,0.01337703317403793,-0.03742662817239761,0.02444636821746826,0.008823513984680176,2,0.2714195251464844,-0.04486173391342163,-0.03918235749006271,0.9606162309646606,-0.06492010504007339,-0.524975597858429,-0.8486377596855164,-10.78656005859375,-4.868240356445312,-10.864013671875,0,2
1562613904.20753,17,0,309167.6690840417,-0.05712988063986486,-0.09120025839041793,0.558534625404123,0.2251032143831253,-0.2307263612747192,0.0734267383813858,-0.02791976928710938,0.01111084222793579,-0.01107370853424072,2,0.2740010619163513,-0.05166512355208397,-0.0399862565100193,0.9595077633857727,-0.07723361998796463,-0.5299440622329712,-0.8445082902908325,-9.857757568359375,-5.383888244628906,-12.46435546875,0,2
1562613904.239512,18,0,309167.7039960417,-0.0561887007651314,-0.09024162423182867,0.5718189127366411,0.5065321922302246,0.1581233739852905,-0.04574305936694145,-0.01422044634819031,0.04292827844619751,-0.03989976644515991,2,0.2804162800312042,-0.05117174237966537,-0.03963899239897728,0.9576935172080994,-0.07578285783529282,-0.5411624908447266,-0.8374963402748108,-9.6170654296875,-7.904731750488281,-15.025634765625,0,2
1562613904.281032,19,0,309167.7389690417,-0.05741655147534332,-0.06952797172105571,0.5984418632367314,0.8752878904342651,0.7211394309997559,-0.1168810278177261,-0.01213625073432922,0.02248716354370117,-0.01613175868988037,2,0.293522983789444,-0.04165514931082726,-0.03765361756086349,0.9543015360832214,-0.05739874020218849,-0.5633558034896851,-0.824218213558197,-7.575729370117188,-10.77930450439453,-12.0906982421875,0,2
1562613904.305358,20,0,309167.7738810417,-0.06055083279292504,-0.04632316246197806,0.6242552175574093,0.5775561928749084,0.5208113789558411,-0.1037981584668159,-0.005803905427455902,0.02363294363021851,-0.02260708808898926,2,0.3061938881874084,-0.03132358193397522,-0.03590910881757736,0.9507758617401123,-0.03757311031222343,-0.584493100643158,-0.8105282783508301,-4.406829833984375,-14.21103668212891,-6.5701904296875,0,2
1562613904.360878,21,0,309167.8088540417,-0.06580977005572605,-0.03190813860707247,0.6330704311963486,0.08857385814189911,0.1834546476602554,-0.1632395684719086,0.03812920302152634,0.01211053133010864,0.007849633693695068,2,0.3105688989162445,-0.02539195492863655,-0.03622375056147575,0.949521005153656,-0.02572044916450977,-0.5916229486465454,-0.805804431438446,-1.780670166015625,-14.648193359375,-3.909423828125,0,2
1562613904.371978,22,0,309167.8088540417,-0.06580977005572605,-0.03190813860707247,0.6330704311963486,0.08857385814189911,0.1834546476602554,-0.1632395684719086,0.03812920302152634,0.01211053133010864,0.007849633693695068,2,0.3105688989162445,-0.02539195492863655,-0.03622375056147575,0.949521005153656,-0.02572044916450977,-0.5916229486465454,-0.805804431438446,-1.780670166015625,-14.648193359375,-3.909423828125,0,2
1562613904.405264,23,0,309167.8437970417,-0.07184026387455152,-0.02695881502443206,0.6330997040924528,-0.001368726138025522,0.003466015681624413,-0.1044348254799843,0.03953661769628525,0.02629446983337402,0.01953125,2,0.3106006383895874,-0.02397918328642845,-0.03831817209720612,0.9494650363922119,-0.02173149399459362,-0.5916465520858765,-0.8059045076370239,-1.871505737304688,-14.44697570800781,-3.5250244140625,0,2
1562613904.437159,24,0,309167.8787700417,-0.07225221709708214,-0.0270854461858369,0.6375561958042438,0.2025953978300095,-0.002776501700282097,0.04115146398544312,0.03025921992957592,0.03547084331512451,-0.01426190137863159,2,0.3127087652683258,-0.02417029999196529,-0.0385369136929512,0.948759138584137,-0.02176192402839661,-0.5952335000038147,-0.8032580614089966,-3.642181396484375,-13.76864242553711,-2.14404296875,0,2
1562613904.471152,25,0,309167.9136820417,-0.06886284099861298,-0.03076975486649364,0.6449603169979043,0.172863632440567,-0.05454925447702408,0.06498849391937256,0.01944461837410927,0.0133509635925293,-0.01545411348342896,2,0.3161922097206116,-0.02549115009605885,-0.0375189334154129,0.9476101994514465,-0.02458495832979679,-0.6011667251586914,-0.7987453937530518,-5.104660034179688,-14.95083618164062,-1.604248046875,0,2
1562613904.520978,26,0,309167.9486550417,-0.06669514695581268,-0.03445968339604399,0.6488164012224614,0.09100186824798584,-0.09419754892587662,0.03905491903424263,-0.01352743245661259,0.0003797411918640137,-0.007362842559814453,2,0.3179789185523987,-0.02694715745747089,-0.03708624839782715,0.9469888806343079,-0.02745202742516994,-0.6042437553405762,-0.7963265180587769,-5.20550537109375,-15.60568237304688,-1.62274169921875,0,2
1562613904.537139,27,0,309167.9835980417,-0.0646432655050066,-0.03890424968150026,0.6521902504427207,0.1263069659471512,-0.09210894256830215,0.04453912004828453,-0.02617657743394375,0.006882846355438232,0.0123744010925293,2,0.31952303647995,-0.02876657620072365,-0.03683494403958321,0.9464252591133118,-0.03091160207986832,-0.6069285869598389,-0.7941550016403198,-5.801681518554688,-15.9167594909668,-1.60333251953125,0,2
1562613904.568942,28,0,309168.0185400417,-0.06313956940006001,-0.04102308824728176,0.6550902293846522,0.05855888873338699,-0.0007370952516794205,0.03073972836136818,-0.04389704763889313,0.01634448766708374,0.02142232656478882,2,0.3208787143230438,-0.02956280671060085,-0.03647534176707268,0.9459558129310608,-0.03252189606428146,-0.6092308163642883,-0.7923257946968079,-5.51605224609375,-16.84901428222656,-2.167724609375,0,2
1562613904.602934,29,0,309168.0534830417,-0.06184212713511667,-0.04238984267082754,0.6543140714304274,-0.07039976865053177,-0.04422655701637268,0.05240604653954506,-0.02721346169710159,0.01321029663085938,0.0214684009552002,2,0.3205059170722961,-0.02999237366020679,-0.03607702627778053,0.9460840225219727,-0.0336248092353344,-0.6086151003837585,-0.7927528023719788,-6.385879516601562,-17.25299835205078,-2.18243408203125,0,2
1562613904.63491,30,0,309168.0884560417,-0.05581379714775497,-0.05044436581061321,0.6514661149921077,-0.02075646631419659,-0.2129140943288803,0.1575555503368378,0.009906038641929626,0.02344202995300293,-0.009034991264343262,2,0.3191103339195251,-0.03281037509441376,-0.034494798630476,0.9465211033821106,-0.04009613022208214,-0.6063529253005981,-0.794184148311615,-6.905364990234375,-17.50077819824219,-3.101806640625,0,2
1562613904.680467,31,0,309168.1233680417,-0.04646502580535782,-0.06914155878923889,0.6591627922373083,0.3501392602920532,-0.3902996182441711,0.2206084281206131,0.02140574157238007,0.02619534730911255,-0.0319439172744751,2,0.3226065933704376,-0.04020873084664345,-0.03315046057105064,0.9450975060462952,-0.05461322888731956,-0.6124552488327026,-0.7886164784431458,-7.9266357421875,-20.169677734375,-6.01519775390625,0,2
1562613904.701289,32,0,309168.1583410417,-0.03666525755844654,-0.08311304188046492,0.6689273023790427,0.2261969745159149,-0.1089782863855362,0.1654523015022278,-0.006260290741920471,0.009114742279052734,-0.02136451005935669,2,0.3272046744823456,-0.04524821788072586,-0.03093606419861317,0.9433624744415283,-0.06512609124183655,-0.6201448440551758,-0.781779408454895,-8.5419921875,-21.80375671386719,-7.09124755859375,0,2
1562613904.736421,33,0,309168.1932840417,-0.03422057644470696,-0.0829710867338409,0.6724878100050014,0.06360390037298203,0.06371208280324936,-0.02430279180407524,-0.008599743247032166,-0.002878129482269287,0.01931369304656982,2,0.3289416432380676,-0.04478570818901062,-0.02981939539313316,0.9428163170814514,-0.06483171135187149,-0.6229340434074402,-0.7795832753181458,-12.28297424316406,-26.16763687133789,-7.98663330078125,0,2
1562613904.766628,34,0,309168.2282570417,-0.0380918704621481,-0.08092996176412756,0.6727221212925293,-0.05270889401435852,-0.02733096852898598,-0.104693666100502,-0.006832808256149292,0.0005404949188232422,0.0350305438041687,2,0.328997015953064,-0.0444607213139534,-0.03131240978837013,0.9427638649940491,-0.0632285475730896,-0.6231173276901245,-0.7795684337615967,-17.53321838378906,-31.06550598144531,-13.76904296875,0,2
1562613904.800462,35,0,309168.2631690417,-0.04140395291705845,-0.07874096721623869,0.6683264731314966,-0.1446318924427032,0.0240912102162838,-0.02900183200836182,-0.01484204083681107,0.004843413829803467,0.01936966180801392,2,0.3268847167491913,-0.04395919665694237,-0.03244687989354134,0.9434835314750671,-0.06173677742481232,-0.6196733713150024,-0.782427966594696,-14.72337341308594,-26.70398712158203,-11.2379150390625,0,2
1562613904.835705,36,0,309168.29813175,-0.04300489890892643,-0.07584204136243945,0.6647579874902333,-0.1212563142180443,0.08325012028217316,-0.04311848804354668,-0.04406098276376724,-0.001489877700805664,0.01521772146224976,2,0.3252122700214386,-0.04283919185400009,-0.03267694637179375,0.9441048502922058,-0.05963549017906189,-0.6168686747550964,-0.784803569316864,-14.250244140625,-23.64755249023438,-7.15936279296875,0,2
1562613904.866545,37,0,309168.33304475,-0.04354453757653828,-0.06906580028286863,0.6587720326290691,-0.1526388674974442,0.2477273344993591,0.05153235048055649,-0.07666001468896866,0.004966020584106445,0.0540536642074585,2,0.3224813938140869,-0.03969996050000191,-0.03175312280654907,0.9452097415924072,-0.05456999689340591,-0.6121463179588318,-0.7888593077659607,-13.59033203125,-22.3972053527832,-5.42095947265625,0,2
1562613904.910848,38,0,309168.36801775,-0.02361249971155802,-0.06420323689330802,0.6606871799647492,0.2299394309520721,0.6403982639312744,0.7375777959823608,-0.1542311608791351,0.05616408586502075,0.07266831398010254,2,0.3238199055194855,-0.03418609127402306,-0.02157210931181908,0.9452548027038574,-0.05065817758440971,-0.6136595606803894,-0.787943959236145,-13.11184692382812,-25.37298583984375,-4.55035400390625,0,2
1562613904.932853,39,0,309168.40295975,0.0264557947833901,-0.05796789199891884,0.6627483694749183,-0.002599796745926142,1.342762112617493,1.291309356689453,-0.09918181598186493,0.0244976282119751,-0.08791905641555786,2,0.325540155172348,-0.02309920638799667,0.003075058106333017,0.9452409744262695,-0.04567074403166771,-0.6152856945991516,-0.7869800925254822,-9.126296997070312,-33.17198944091797,2.63525390625,0,2
1562613904.96429,40,0,309168.40295975,0.0264557947833901,-0.05796789199891884,0.6627483694749183,-0.002599796745926142,1.342762112617493,1.291309356689453,-0.09918181598186493,0.0244976282119751,-0.08791905641555786,2,0.325540155172348,-0.02309920638799667,0.003075058106333017,0.9452409744262695,-0.04567074403166771,-0.6152856945991516,-0.7869800925254822,-9.126296997070312,-33.17198944091797,2.63525390625,0,2
1562613904.998358,41,0,309168.43793275,0.08393614268730365,-0.04918220240615084,0.6716965409363987,0.6055968403816223,1.185993194580078,1.224098324775696,-0.06453975290060043,-0.03052157163619995,-0.08212953805923462,2,0.3301543891429901,-0.009371259249746799,0.03150321170687675,0.943354606628418,-0.03848268836736679,-0.6223148703575134,-0.78182053565979,-6.704681396484375,-44.98487091064453,12.41357421875,0,2
1562613905.030514,42,0,309168.47284575,0.142034465789378,-0.04646442875301737,0.6941493661734058,0.5908607244491577,1.204324841499329,1.335307717323303,-0.1819810271263123,0.01365172863006592,-0.03189933300018311,2,0.3407494723796844,0.002339691622182727,0.05882669985294342,0.9383090138435364,-0.03569962456822395,-0.6397318840026855,-0.7677686214447021,-5.473037719726562,-51.62379455566406,17.36553955078125,0,2
1562613905.071944,43,0,309168.50781875,0.2052420087396368,-0.04534022537966356,0.6984000121934776,0.02692640386521816,1.011010527610779,1.33029568195343,-0.08561795204877853,-0.02849262952804565,0.08582043647766113,2,0.3424407243728638,0.01385276578366756,0.08851856738328934,0.9352577328681946,-0.03471291065216064,-0.642993152141571,-0.7650849223136902,-5.422698974609375,-65.60581207275391,27.094482421875,0,2
1562613905.096257,44,0,309168.54273075,0.2602567906773601,-0.04739474746488885,0.6863999945574003,-0.4062173366546631,0.8183230757713318,1.207024216651917,-0.0521559976041317,0.003869414329528809,0.1080730557441711,2,0.3364588916301727,0.02152809500694275,0.1142537519335747,0.9344934225082397,-0.03664765506982803,-0.6337565779685974,-0.7726638913154602,-6.954452514648438,-77.17440795898438,33.36712646484375,0,2
1562613905.130182,45,0,309168.57770375,0.3165598547162853,-0.07020625011732021,0.6687218555178565,-0.3507103621959686,0.02666789852082729,1.348733186721802,-0.04692339152097702,0.0752071738243103,0.08935666084289551,2,0.3290892541408539,0.01895563863217831,0.137425884604454,0.9340530633926392,-0.05503961816430092,-0.6199836134910583,-0.7826818823814392,-10.63294982910156,-87.1695556640625,33.40118408203125,0,2
1562613905.161939,46,0,309168.61264675,0.3775782549607107,-0.1077149492241518,0.6549835045994384,-0.3021911978721619,0.1996395736932755,1.435616612434387,0.03721469640731812,0.08226925134658813,0.03919005393981934,2,0.3250612318515778,0.0102152219042182,0.1604295372962952,0.9319298267364502,-0.08525910973548889,-0.6091461777687073,-0.7884616851806641,-13.77644348144531,-92.67861175537109,32.21136474609375,0,2
1562613905.19658,47,0,309168.64761975,0.4144864312862703,-0.1599638493559701,0.6356845614187477,-0.9681522846221924,-0.6031584739685059,0.518484890460968,0.02416624128818512,0.114728569984436,0.1238791346549988,2,0.3204689919948578,-0.01017184089869261,0.1703969538211823,0.9317516088485718,-0.1281691342592239,-0.5937284827232361,-0.7943923473358154,-22.63117980957031,-102.3207473754883,27.4178466796875,0,2
1562613905.229672,48,0,309168.68253175,0.4128124772031734,-0.1548386718867443,0.5933796266445355,-0.9943358898162842,0.6484795808792114,-0.02645083144307137,0.09233568608760834,0.1109129190444946,0.01134276390075684,2,0.3004517257213593,-0.01265584025532007,0.173271119594574,0.93784099817276,-0.1278575509786606,-0.5591661334037781,-0.8191371560096741,-27.1873779296875,-102.7365341186523,18.6214599609375,0,2
1562613905.262049,49,0,309168.71750475,0.3914578643161632,-0.1018945573357787,0.5924895881835772,0.3433511853218079,1.277430772781372,-0.749045193195343,0.1529428213834763,0.04082250595092773,0.01511412858963013,2,0.2954576015472412,0.008924556896090508,0.1711857467889786,0.9398514032363892,-0.08438074588775635,-0.5584279894828796,-0.8252503275871277,-22.60542297363281,-100.4079666137695,20.88232421875,0,2
1562613905.295969,50,0,309168.75244775,0.3488688551954135,-0.0465372877116472,0.6175058817577044,0.7881394624710083,0.5572255253791809,-1.178358674049377,0.07981888949871063,0.05741214752197266,0.1364482641220093,2,0.303025484085083,0.03089288808405399,0.1583370119333267,0.9392287135124207,-0.03792932257056236,-0.5790034532546997,-0.8144423961639404,-15.16146850585938,-96.66040802001953,28.00469970703125,0,2
1562613905.327967,51,0,309168.78738975,0.2922963639998572,-0.003124405989121594,0.639420451134379,0.1245251372456551,0.2254379391670227,-1.433237075805664,0.1894458830356598,-0.09907728433609009,-0.04959869384765625,2,0.3111565411090851,0.04430250823497772,0.1377630531787872,0.939276397228241,-0.002507149707525969,-0.5967304706573486,-0.8024377822875977,-11.7835693359375,-94.00302886962891,30.1573486328125,0,2
1562613905.359705,52,0,309168.82233275,0.2370097031132692,0.04194963053751977,0.6141417175971504,-0.7431416511535645,0.2568820714950562,-1.05687940120697,0.1857430338859558,-0.5020847916603088,-0.414649486541748,2,0.2977181971073151,0.05558055266737938,0.1189676374197006,0.9455799460411072,0.03427404910326004,-0.5762572884559631,-0.8165493607521057,-3.817596435546875,-83.95095825195312,29.72772216796875,0,2
1562613905.395955,53,0,309168.85730575,0.2087358978912355,0.06591110549702714,0.6363875266196745,1.416546106338501,0.2927498519420624,-0.4697753190994263,0.1823265105485916,-0.1677858233451843,-0.2462969422340393,2,0.3077198565006256,0.06370001286268234,0.1091475263237953,0.943047046661377,0.05297049507498741,-0.594294011592865,-0.8025016188621521,-0.0633087158203125,-77.57182312011719,30.5660400390625,0,2
1562613905.425808,54,0,309168.89221775,0.1773821123341024,0.1027319591842127,0.6915631730456239,1.499705910682678,0.5238478779792786,-0.6349210143089294,0.05611381679773331,0.1305870413780212,0.1486324071884155,2,0.3328760862350464,0.07809580862522125,0.1005557626485825,0.9343357086181641,0.07899019122123718,-0.6377419829368591,-0.7661890983581543,1.905288696289062,-77.77870941162109,39.10043334960938,0,2
1562613905.475618,55,0,309168.92719075,0.155050330311708,0.1147095054018766,0.7112894924520826,-0.003494315315037966,-0.4753794074058533,-0.1827372610569,-0.007732346653938293,0.2468569278717041,0.2709387540817261,2,0.3424164354801178,0.08049722760915756,0.09238138049840927,0.9315239787101746,0.08670438826084137,-0.6528111100196838,-0.7525423765182495,3.630233764648438,-76.06599426269531,41.87384033203125,0,2
1562613905.491593,56,0,309168.96213375,0.1778247570938538,0.06538758465478994,0.6801480578598035,-1.232753992080688,-1.191100001335144,0.700464129447937,0.02908779308199883,0.1213296055793762,0.1056617498397827,2,0.3293254673480988,0.06029665842652321,0.09452547132968903,0.9375360608100891,0.05080129206180573,-0.6289081573486328,-0.7758181095123291,2.880722045898438,-75.95793914794922,37.32937622070312,0,2
1562613905.525661,57,0,309168.96213375,0.1778247570938538,0.06538758465478994,0.6801480578598035,-1.232753992080688,-1.191100001335144,0.700464129447937,0.02908779308199883,0.1213296055793762,0.1056617498397827,2,0.3293254673480988,0.06029665842652321,0.09452547132968903,0.9375360608100891,0.05080129206180573,-0.6289081573486328,-0.7758181095123291,2.880722045898438,-75.95793914794922,37.32937622070312,0,2
1562613905.557592,58,0,309168.99710675,0.2159084108981903,0.0001785022927793856,0.6401734090480649,-0.9934634566307068,-1.120338201522827,0.7923343777656555,0.04717415571212769,-0.09577161073684692,-0.1444052457809448,2,0.3128080368041992,0.03398595377802849,0.1023000106215477,0.9436793923377991,0.0001431574492016807,-0.5973345041275024,-0.8019921779632568,-1.637039184570312,-78.06194305419922,23.31134033203125,0,2
1562613905.591433,59,0,309169.03201875,0.2404826769530122,-0.04785884696541737,0.6275704092279454,0.005267504137009382,-0.871799647808075,0.4644728302955627,0.02913235500454903,-0.05438011884689331,-0.1491201519966125,2,0.3090748190879822,0.01441936660557985,0.106730081140995,0.9449198842048645,-0.0387248694896698,-0.5871798396110535,-0.8085296750068665,-8.703720092773438,-80.21739959716797,13.9793701171875,0,2
1562613905.640819,60,0,309169.06699175,0.2613252599709309,-0.08738856978533137,0.6309359888465992,0.03802649676799774,-0.7789678573608398,0.5295173525810242,0.03870692849159241,0.05736857652664185,0.03141617774963379,2,0.312733381986618,-0.000785111275035888,0.1103064194321632,0.9434138536453247,-0.07047437131404877,-0.58990079164505,-0.8043944239616394,-16.11505126953125,-82.3912353515625,10.188232421875,0,2
1562613905.657303,61,0,309169.10190375,0.2901625894726117,-0.1391524963821331,0.6203161434974195,-0.301028698682785,-1.141740560531616,0.7789137363433838,0.05019095540046692,0.05611890554428101,0.04419040679931641,2,0.3108431994915009,-0.02148926444351673,0.1163462698459625,0.9430684447288513,-0.1128625869750977,-0.581292450428009,-0.8058294057846069,-19.0792236328125,-83.68364715576172,7.5938720703125,0,2
1562613905.689513,62,0,309169.13687775,0.3226814990155003,-0.2027920396467095,0.6061792018776988,-0.2033126652240753,-1.353514909744263,0.8110866546630859,0.03611560165882111,0.01414722204208374,-0.0528416633605957,2,0.3086003959178925,-0.04765333235263824,0.1227124780416489,0.9420384764671326,-0.1655207872390747,-0.569731593132019,-0.8049899339675903,-26.01560974121094,-88.14443969726562,-1.8614501953125,0,2
1562613905.723248,63,0,309169.17181975,0.3566469141447406,-0.2705080963069236,0.6021985952690178,0.2290447652339935,-1.343428611755371,0.8040457963943481,0.05535924434661865,0.01565819978713989,-0.08166587352752686,2,0.3120439648628235,-0.07460843026638031,0.1284966319799423,0.9383766651153564,-0.2202148139476776,-0.5664556622505188,-0.7941243052482605,-34.73246765136719,-93.75289154052734,-12.2618408203125,0,2
1562613905.755731,64,0,309169.20679275,0.3939988306257084,-0.3326776356362463,0.6102867871631874,0.6077711582183838,-1.080840945243835,0.7401523590087891,0.01286393404006958,0.02010113000869751,-0.06441348791122437,2,0.3214627504348755,-0.09687864035367966,0.1353281736373901,0.9321815967559814,-0.2676229178905487,-0.5731024742126465,-0.7745524644851685,-43.96755981445312,-100.6903762817383,-18.60333251953125,0,2
1562613905.790055,65,0,309169.24170475,0.4320423126687372,-0.383596548370812,0.6228019872582901,0.6344953775405884,-0.6706994771957397,0.6789608597755432,0.01171186566352844,0.04642343521118164,-0.01686859130859375,2,0.332677960395813,-0.1127696111798286,0.1432462334632874,0.9252506494522095,-0.3039900362491608,-0.5833133459091187,-0.7532168030738831,-52.19631958007812,-108.1630477905273,-20.58184814453125,0,2
1562613905.821077,66,0,309169.276695875,0.4645760939720555,-0.4189408610267273,0.6275135911461466,0.2356359660625458,-0.3861149847507477,0.6248740553855896,-0.03123307228088379,0.05375832319259644,0.04363125562667847,2,0.3393120765686035,-0.1229821667075157,0.1517256498336792,0.9201749563217163,-0.3292949199676514,-0.5871338248252869,-0.7394853830337524,-55.08708190917969,-110.9491348266602,-20.31561279296875,0,2
1562613905.855892,67,0,309169.311607875,0.4842510755462893,-0.4400730714834272,0.6157158829535161,-0.296556144952774,-0.2089745700359344,0.511760950088501,-0.04129397869110107,0.04259878396987915,0.05238115787506104,2,0.336958646774292,-0.1310342401266098,0.1587758362293243,0.9187377095222473,-0.3477739691734314,-0.5775430798530579,-0.7385777831077576,-59.74295043945312,-114.625862121582,-20.542724609375,0,2
1562613905.887057,68,0,309169.346580875,0.4907958332146393,-0.4485637335891154,0.5961949714711683,-0.454462856054306,-0.1150540560483932,0.2873328328132629,-0.06053397059440613,0.05976605415344238,-0.01373672485351562,2,0.3294163048267365,-0.136662632226944,0.163047268986702,0.9199042320251465,-0.3588539361953735,-0.5614979863166809,-0.7456164360046387,-62.75871276855469,-115.2986679077148,-23.55999755859375,0,2
1562613905.920856,69,0,309169.381522875,0.4877790394110183,-0.448650948033423,0.5833570504600192,-0.2959863245487213,0.01621877960860729,0.01366383209824562,-0.04786154627799988,0.03415983915328979,-0.07446485757827759,2,0.3235062658786774,-0.1390481740236282,0.1634101718664169,0.9215782284736633,-0.362015962600708,-0.5508288741111755,-0.7520186305046082,-65.00437927246094,-112.8413162231445,-25.03765869140625,0,2
1562613905.95986,70,0,309169.416496875,0.4842207963098943,-0.4432763889730807,0.5811209824519885,0.01163339242339134,0.145455539226532,-0.09518073499202728,-0.007058978080749512,0.04881501197814941,-0.0418131947517395,2,0.3218250572681427,-0.1374646723270416,0.162942036986351,0.9224869012832642,-0.358496367931366,-0.5489612817764282,-0.7550641894340515,-65.56907653808594,-109.8943252563477,-22.97918701171875,0,2
1562613905.986911,71,0,309169.451408875,0.4782501270364079,-0.4349353582522508,0.5818270229139211,-0.1117614284157753,0.09996514022350311,-0.1406909227371216,0.006218820810317993,0.06094145774841309,0.0006431937217712402,2,0.321058064699173,-0.1344749331474304,0.161432147026062,0.9234597682952881,-0.3520225584506989,-0.549551248550415,-0.7576764225959778,-65.40982055664062,-108.8281173706055,-21.61419677734375,0,2
1562613906.041167,72,0,309169.486381875,0.4719490706998276,-0.4302537006145588,0.5780444911799645,-0.1379496455192566,0.03499773144721985,-0.07749220728874207,0.02534884214401245,0.03715860843658447,-0.05043983459472656,2,0.3185663819313049,-0.1338487267494202,0.159771740436554,0.9247015714645386,-0.3493360579013824,-0.5463871955871582,-0.761199951171875,-65.74110412597656,-106.0406112670898,-20.08477783203125,0,2
1562613906.052686,73,0,309169.521293875,0.4683408095046076,-0.4265296342970758,0.5792619895107108,0.07248769700527191,0.03246230632066727,-0.1131466701626778,0.01452630758285522,0.06691139936447144,-0.06392484903335571,2,0.3185755908489227,-0.1325325816869736,0.1585361510515213,0.9251005053520203,-0.3462234139442444,-0.5474064946174622,-0.7618893980979919,-66.46394348144531,-105.3680801391602,-20.0970458984375,0,2
1562613906.08497,74,0,309169.521293875,0.4683408095046076,-0.4265296342970758,0.5792619895107108,0.07248769700527191,0.03246230632066727,-0.1131466701626778,0.01452630758285522,0.06691139936447144,-0.06392484903335571,2,0.3185755908489227,-0.1325325816869736,0.1585361510515213,0.9251005053520203,-0.3462234139442444,-0.5474064946174622,-0.7618893980979919,-66.46394348144531,-105.3680801391602,-20.0970458984375,0,2
1562613906.118764,75,0,309169.556266875,0.4653107281819504,-0.4238213094310693,0.5836965955022895,0.07340046763420105,0.03399594873189926,-0.09989112615585327,0.01961931586265564,0.07906007766723633,-0.04418522119522095,2,0.320151299238205,-0.1311530023813248,0.1569873690605164,0.9250172972679138,-0.343157023191452,-0.5511122345924377,-0.7606040835380554,-66.46713256835938,-106.6240158081055,-21.25579833984375,0,2
1562613906.150636,76,0,309169.591209875,0.4650918740599629,-0.4229632648153454,0.5855314997914479,0.02630306594073772,0.01159523241221905,0.00879750307649374,0.01963287591934204,0.08387297391891479,-0.04316741228103638,2,0.3208926618099213,-0.130539208650589,0.1567844599485397,0.924881637096405,-0.3420886099338531,-0.5526424050331116,-0.7599748373031616,-66.26541137695312,-107.640251159668,-22.20648193359375,0,2
1562613906.201779,77,0,309169.626182875,0.4664827761680929,-0.4236259919376834,0.5841196989456192,-0.03569044917821884,-0.01591596752405167,0.07145221531391144,0.0114399790763855,0.08490675687789917,-0.04196596145629883,2,0.3204024434089661,-0.1308168023824692,0.1575054973363876,0.9248899221420288,-0.3429125845432281,-0.5514652729034424,-0.7604584693908691,-65.26380920410156,-110.0083541870117,-23.70086669921875,0,2
1562613906.216457,78,0,309169.661094875,0.4682667806654646,-0.4253927659182369,0.5814369104687458,-0.07222943753004074,-0.008829370141029358,0.06373558938503265,0.009091973304748535,0.0830453634262085,-0.03753453493118286,2,0.3194559812545776,-0.1317183077335358,0.158398449420929,0.9249368906021118,-0.3448649048805237,-0.5492252707481384,-0.7611963152885437,-64.9893798828125,-111.6036758422852,-24.39306640625,0,2
1562613906.250365,79,0,309169.696067875,0.4697450245033961,-0.4265607268323662,0.5760208683852438,-0.1276890337467194,-0.04238825663924217,0.1069479957222939,0.006478935480117798,0.07197445631027222,-0.04811632633209229,2,0.3172172009944916,-0.1327715963125229,0.1596054434776306,0.9253491759300232,-0.3469793498516083,-0.5446912050247192,-0.7634899020195007,-65.12431335449219,-112.5012588500977,-25.8917236328125,0,2
1562613906.282922,80,0,309169.731010875,0.470348146413717,-0.4266533706429275,0.5714014292633703,-0.1059139668941498,0.03868342563509941,0.04476531594991684,0.01419562101364136,0.08334815502166748,-0.04090386629104614,2,0.3151913583278656,-0.1333578377962112,0.1604747176170349,0.9258066415786743,-0.3480876386165619,-0.5408113598823547,-0.7657402157783508,-66.09971618652344,-113.0035629272461,-28.6324462890625,0,2
1562613906.316158,81,0,309169.765952875,0.4698992555457826,-0.4257666014635252,0.5644140609814248,-0.214149683713913,-0.004127687774598598,0.07712449133396149,0.0224856436252594,0.07961666584014893,-0.03976190090179443,2,0.3119504749774933,-0.1339822858572006,0.1613184660673141,0.9266670942306519,-0.3489606976509094,-0.534920871257782,-0.769471287727356,-65.9437255859375,-112.3334732055664,-29.20794677734375,0,2
1562613906.354854,82,0,309169.800895875,0.468963038971776,-0.4262267260752418,0.5577463677667018,-0.1354696899652481,-0.03905463218688965,0.04290016740560532,0.02131807804107666,0.0806928277015686,-0.05803495645523071,2,0.3089247047901154,-0.1352588534355164,0.1616815328598022,0.9274317622184753,-0.3507815599441528,-0.5292754769325256,-0.7725411653518677,-67.59638977050781,-109.2527389526367,-29.31024169921875,0,2
1562613906.382276,83,0,309169.835868875,0.4689749107201009,-0.4279495273357995,0.5536451769390119,-0.07851731777191162,-0.03763394057750702,0.05677059665322304,0.01698791980743408,0.09028083086013794,-0.06639003753662109,2,0.3072181940078735,-0.1366197466850281,0.1619558483362198,0.9277511835098267,-0.353009819984436,-0.525791347026825,-0.773904025554657,-70.20156860351562,-106.2857894897461,-27.31524658203125,0,2
1562613906.416763,84,0,309169.870780875,0.471210088817436,-0.4303082803016278,0.5524305190634673,0.02120344154536724,-0.03903651237487793,0.06012485921382904,0.007133781909942627,0.09635663032531738,-0.06608080863952637,2,0.3070159554481506,-0.1375378370285034,0.1627890765666962,0.9275366067886353,-0.3551004528999329,-0.5247577428817749,-0.7736490964889526,-72.70809936523438,-105.8193893432617,-26.5477294921875,0,2
1562613906.448227,85,0,309169.905753875,0.4725907255601334,-0.4321513471816258,0.5513281834950287,-0.0206073671579361,-0.02650611288845539,0.0389895848929882,0.006529718637466431,0.08777201175689697,-0.04671120643615723,2,0.306765228509903,-0.1383330225944519,0.1632911264896393,0.9274131059646606,-0.3567678034305573,-0.5238190889358521,-0.7735181450843811,-73.59288024902344,-107.5082168579102,-27.680908203125,0,2
1562613906.480079,86,0,309169.940696875,0.4730902967744698,-0.4323698530436205,0.5499831019529764,-0.0309456828981638,0.002531694248318672,0.009816252626478672,0.008077621459960938,0.08847057819366455,-0.04453194141387939,2,0.3062122762203217,-0.1385439783334732,0.1636660695075989,0.9274982810020447,-0.3572317361831665,-0.5226728320121765,-0.7740792036056519,-73.42024230957031,-108.8547897338867,-28.27203369140625,0,2
1562613906.520338,87,0,309169.975669875,0.4719933439182389,-0.4319434415402933,0.5477362512882236,-0.07422550767660141,-0.01232971251010895,0.004585047252476215,0.02021670341491699,0.08986246585845947,-0.05301821231842041,2,0.3050897419452667,-0.138824537396431,0.1635174453258514,0.9278523325920105,-0.3573923408985138,-0.5207560062408447,-0.7752959728240967,-72.20712280273438,-110.6856002807617,-29.2449951171875,0,2
1562613906.546658,88,0,309170.010581875,0.4718580938914284,-0.4318073536532624,0.5453832326755615,-0.03506867215037346,0.007515644654631615,0.03123494610190392,0.02437722682952881,0.09012317657470703,-0.0625995397567749,2,0.3040092289447784,-0.1391068249940872,0.163783922791481,0.9281176924705505,-0.3577986657619476,-0.5187457799911499,-0.7764553427696228,-71.65328979492188,-111.3358840942383,-31.18829345703125,0,2
1562613906.594917,89,0,309170.045554875,0.4728644471385896,-0.4324043160971172,0.5435848595152749,-0.04286991432309151,-0.01424671709537506,0.04699062928557396,0.02161583304405212,0.09341984987258911,-0.0468604564666748,2,0.3033179640769958,-0.139479398727417,0.1643960773944855,0.9281797409057617,-0.3586524724960327,-0.5172074437141418,-0.777087390422821,-72.74842834472656,-110.323860168457,-32.1539306640625,0,2
1562613906.611943,90,0,309170.080467875,0.4741561671852449,-0.433848285340653,0.5402044806557567,-0.07021389156579971,-0.02789865061640739,0.07911064475774765,0.02107727527618408,0.08810907602310181,-0.04903066158294678,2,0.3020040094852448,-0.1404216438531876,0.1652208715677261,0.9283196926116943,-0.360507071018219,-0.5143113732337952,-0.7781506776809692,-73.42900085449219,-109.2864303588867,-32.51898193359375,0,2
1562613906.645969,91,0,309170.115440875,0.4757941355484414,-0.4354658623040314,0.5367994170675062,-0.04395481199026108,-0.02685585990548134,0.05970992892980576,0.01092877984046936,0.0908430814743042,-0.05655986070632935,2,0.3007188141345978,-0.141397625207901,0.1661854386329651,0.9284165501594543,-0.3625019788742065,-0.5113881826400757,-0.7791498303413391,-75.52861022949219,-107.6367874145508,-31.5447998046875,0,2
1562613906.680754,92,0,309170.115440875,0.4757941355484414,-0.4354658623040314,0.5367994170675062,-0.04395481199026108,-0.02685585990548134,0.05970992892980576,0.01092877984046936,0.0908430814743042,-0.05655986070632935,2,0.3007188141345978,-0.141397625207901,0.1661854386329651,0.9284165501594543,-0.3625019788742065,-0.5113881826400757,-0.7791498303413391,-75.52861022949219,-107.6367874145508,-31.5447998046875,0,2
1562613906.711772,93,0,309170.150382875,0.4767145725920436,-0.4362325914724218,0.5353228823943144,-0.005428340286016464,-0.007435719482600689,0.0213882215321064,0.007390409708023071,0.09387505054473877,-0.05706954002380371,2,0.3001823127269745,-0.1418203115463257,0.1666921377182007,0.9284348487854004,-0.3634178936481476,-0.5101187825202942,-0.7795551419258118,-76.38410949707031,-109.1745834350586,-31.50006103515625,0,2
1562613906.759842,94,0,309170.185355875,0.4767745313869327,-0.4358517148017535,0.5352447574949875,0.01761242002248764,0.01832858473062515,-0.01137439161539078,0.0110008716583252,0.0971950888633728,-0.05529260635375977,2,0.3001195788383484,-0.1416453570127487,0.1667874306440353,0.9284647703170776,-0.3631377816200256,-0.5100516080856323,-0.7797296643257141,-76.69210815429688,-111.1582107543945,-33.594970703125,0,2
1562613906.777773,95,0,309170.220268875,0.4769431185518196,-0.4351614745725604,0.535369593074809,0.0126235093921423,0.01302255876362324,0.006071619223803282,0.01572984457015991,0.09716546535491943,-0.0546724796295166,2,0.3001302182674408,-0.1412822753190994,0.166952833533287,0.9284868240356445,-0.3625726401805878,-0.5101589560508728,-0.7799223661422729,-76.90101623535156,-110.3898696899414,-34.939208984375,0,2
1562613906.809639,96,0,309170.255241875,0.4774339369737375,-0.4352747813679951,0.5355801077577372,0.02429702877998352,0.006299387663602829,0.004730547778308392,0.01821437478065491,0.0966448187828064,-0.05127102136611938,2,0.3002691864967346,-0.1412319391965866,0.1671359539031982,0.9284167289733887,-0.3626157343387604,-0.5103399753570557,-0.7797839045524597,-77.73902893066406,-108.1744155883789,-33.47784423828125,0,2
1562613906.843711,97,0,309170.2901415,0.4775910924721312,-0.435759999132716,0.535739438067418,0.01118689402937889,-0.02261282689869404,-0.003857836127281189,0.01495787501335144,0.09066331386566162,-0.0539778470993042,2,0.3003926575183868,-0.1414114087820053,0.1671150475740433,0.9283531904220581,-0.3629597425460815,-0.5104770064353943,-0.7795341014862061,-79.67803955078125,-104.3930587768555,-29.3116455078125,0,2
1562613906.875544,98,0,309170.3251145,0.4778645121716799,-0.4359992115726736,0.5363717669046245,0.03340817615389824,0.002967130392789841,-0.005930324085056782,0.01581671833992004,0.08864420652389526,-0.05419015884399414,2,0.300716906785965,-0.1413933336734772,0.1671226173639297,0.9282495975494385,-0.3630098104476929,-0.5110206604003906,-0.7791545391082764,-81.80364990234375,-103.2408828735352,-24.950439453125,0,2
1562613906.917774,99,0,309170.3600575,0.4777899421042606,-0.4358843159673608,0.5365549758275675,-0.002734940964728594,0.004416553303599358,0.0001157256774604321,0.01847988367080688,0.09264713525772095,-0.0456121563911438,2,0.3007845878601074,-0.1413257122039795,0.1670811176300049,0.9282454252243042,-0.3628807365894318,-0.5111781358718872,-0.7791113257408142,-83.24810791015625,-105.3157424926758,-26.7708740234375,0,2
1562613906.941496,100,0,309170.3950305,0.477492188291095,-0.4355406388834761,0.5356593807274972,-0.02608796022832394,0.002591459080576897,0.0003920801682397723,0.02005293965339661,0.09035032987594604,-0.05616515874862671,2,0.3003312647342682,-0.1413355767726898,0.1671126335859299,0.9283850193023682,-0.362805962562561,-0.5104081630706787,-0.7796507477760315,-83.17706298828125,-104.8927383422852,-26.9110107421875,0,2
1562613906.976827,101,0,309170.4299425,0.4775580295783102,-0.4347711760131324,0.5354491776193638,0.01479852665215731,0.02905579656362534,0.003984057810157537,0.01968050003051758,0.09738677740097046,-0.06117480993270874,2,0.3001768589019775,-0.1409977376461029,0.1672863960266113,0.9284549951553345,-0.3622511029243469,-0.510227382183075,-0.7800269722938538,-84.87936401367188,-100.046028137207,-23.36114501953125,0,2
1562613907.007321,102,0,309170.4649155,0.4787044751252162,-0.4332288097918588,0.5351449324611501,0.01266780495643616,0.06546826660633087,0.04703596234321594,0.01968514919281006,0.09166216850280762,-0.05232709646224976,2,0.2999909818172455,-0.1401520371437073,0.1680900305509567,0.9284979701042175,-0.3611127436161041,-0.509965717792511,-0.7807256579399109,-88.07308959960938,-97.13440704345703,-18.6558837890625,0,2
1562613907.041149,103,0,309170.4998585,0.4808704271464189,-0.4323727397109033,0.5342073364419774,-0.005331929307430983,0.03880324587225914,0.05140900984406471,0.01086968183517456,0.09112906455993652,-0.04987454414367676,2,0.2996475696563721,-0.1395606696605682,0.1693469285964966,0.9284695982933044,-0.3606444597244263,-0.5091589689254761,-0.7814683318138123,-89.25236511230469,-97.30782318115234,-16.17431640625,0,2
1562613907.081107,104,0,309170.5348005,0.4814809853615609,-0.4314099406297225,0.5333285327312015,-0.006609487347304821,0.03119204565882683,0.01169794611632824,0.01062381267547607,0.09084457159042358,-0.05200433731079102,2,0.2992122769355774,-0.1391450315713882,0.1698897033929825,0.9285732507705688,-0.3600788712501526,-0.508402407169342,-0.7822213172912598,-91.45881652832031,-93.83345794677734,-13.46429443359375,0,2
1562613907.107144,105,0,309170.5697435,0.4810613024444838,-0.4303976491779465,0.5323805076374425,-0.04201313108205795,0.01789132133126259,-0.003125955583527684,0.01734095811843872,0.09758007526397705,-0.04947733879089355,2,0.2986696362495422,-0.1388700902462006,0.1699701398611069,0.9287742972373962,-0.359487771987915,-0.5075858235359192,-0.7830231189727783,-93.33758544921875,-90.14659118652344,-9.8807373046875,0,2
1562613907.154424,106,0,309170.6047165,0.4809330866087673,-0.4300568031872914,0.5304525888390513,-0.02614290080964565,-0.005540099926292896,0.03059015050530434,0.02225762605667114,0.09829634428024292,-0.06602847576141357,2,0.2977620959281921,-0.1389998197555542,0.1702131479978561,0.9290016889572144,-0.3596281707286835,-0.5059238076210022,-0.7840335965156555,-96.34498596191406,-87.78549194335938,-7.75567626953125,0,2
1562613907.173083,107,0,309170.6396285,0.4824693993629558,-0.4310717196947553,0.5306473005397677,0.04972768574953079,-0.004718617536127567,0.02742731757462025,0.01860314607620239,0.09637397527694702,-0.05857986211776733,2,0.2980432510375977,-0.1392151713371277,0.1707500666379929,0.9287808537483215,-0.3603825867176056,-0.5060917139053345,-0.7835786938667297,-96.77528381347656,-89.84700775146484,-8.47509765625,0,2
1562613907.205193,108,0,309170.6746015,0.4835388664245017,-0.4318721542459014,0.5304735598817222,-0.0127787608653307,-0.01277374848723412,0.02281264029443264,0.01330173015594482,0.08853346109390259,-0.04313349723815918,2,0.2981078326702118,-0.1394517868757248,0.1711501330137253,0.928650975227356,-0.3610464632511139,-0.5059418678283691,-0.7833698391914368,-97.60533142089844,-86.95818328857422,-7.2567138671875,0,2
1562613907.240768,109,0,309170.7095445,0.4834810397659351,-0.431033462084349,0.5291388558435208,-0.02659080550074577,0.03733783960342407,0.004749673418700695,0.01472654938697815,0.09343808889389038,-0.04874777793884277,2,0.2974300980567932,-0.1392578631639481,0.1714228689670563,0.9288470149040222,-0.3606711328029633,-0.5047901272773743,-0.7842851877212524,-98.65805053710938,-84.47699737548828,-4.51104736328125,0,2
1562613907.27097,110,0,309170.7095445,0.4834810397659351,-0.431033462084349,0.5291388558435208,-0.02659080550074577,0.03733783960342407,0.004749673418700695,0.01472654938697815,0.09343808889389038,-0.04874777793884277,2,0.2974300980567932,-0.1392578631639481,0.1714228689670563,0.9288470149040222,-0.3606711328029633,-0.5047901272773743,-0.7842851877212524,-98.65805053710938,-84.47699737548828,-4.51104736328125,0,2
1562613907.320633,111,0,309170.7445175,0.4830890565489431,-0.4290080638934787,0.5283852280473964,-0.008492228575050831,0.04878783226013184,-0.002101308200508356,0.0203126072883606,0.09562468528747559,-0.05560624599456787,2,0.2968891561031342,-0.1384807676076889,0.1716400980949402,0.9290961623191833,-0.3592400550842285,-0.5041394233703613,-0.785359799861908,-100.2835845947266,-84.95992279052734,-3.7373046875,0,2
1562613907.336863,112,0,309170.7794295,0.4836692266739642,-0.4282936191010687,0.5280158411525537,0.006627908442169428,0.01424598693847656,0.02178525365889072,0.02535185217857361,0.09034615755081177,-0.05655324459075928,2,0.2967012226581573,-0.1381144225597382,0.1720637381076813,0.9291322827339172,-0.3587561845779419,-0.5038204193115234,-0.7857855558395386,-100.3548889160156,-85.06259155273438,-4.74334716796875,0,2
1562613907.370753,113,0,309170.8144025,0.4848431754846479,-0.4286105918325434,0.528277905244407,0.03342771157622337,0.006171435117721558,0.02231020666658878,0.01979371905326843,0.09495210647583008,-0.05176728963851929,2,0.296927809715271,-0.1380507498979568,0.1725279092788696,0.9289833307266235,-0.3589503467082977,-0.5040467381477356,-0.7855517268180847,-102.3533325195312,-80.35189056396484,1.58270263671875,0,2
1562613907.402873,114,0,309170.8493145,0.4858468777545324,-0.4288244217714274,0.5281665086786422,0.009655790403485298,0.006426179781556129,0.0194065049290657,0.0152398943901062,0.0954815149307251,-0.04736804962158203,2,0.2969653010368347,-0.1380166709423065,0.1729768663644791,0.9288929104804993,-0.3591416776180267,-0.5039505362510681,-0.7855260372161865,-105.2955017089844,-81.54506683349609,2.4852294921875,0,2
1562613907.436692,115,0,309170.8842885,0.486823374127738,-0.4285094598346122,0.5279556433900402,0.0158458985388279,0.01771118305623531,0.01516192592680454,0.01027569174766541,0.09162193536758423,-0.05248343944549561,2,0.2969102561473846,-0.1377550363540649,0.1735046356916428,0.9288508296012878,-0.3589383661746979,-0.5037683844566345,-0.7857357263565063,-106.5826263427734,-81.37441253662109,2.69720458984375,0,2
1562613907.482047,116,0,309170.9192305,0.4869701980127865,-0.4284257241187269,0.527480517666319,-0.00291667552664876,-0.007266003638505936,0.00472157122567296,0.008798718452453613,0.09133297204971313,-0.05807954072952271,2,0.2966987788677216,-0.1377611607313156,0.1736471652984619,0.9288908839225769,-0.3589719831943512,-0.5033578872680664,-0.7859833836555481,-108.790283203125,-73.93427276611328,10.63671875,0,2
1562613907.503177,117,0,309170.9542035,0.4869135049694789,-0.4279739285351578,0.5281395348468313,0.02926983498036861,0.02077214606106281,-0.01947267167270184,0.01540052890777588,0.0939629077911377,-0.0505291223526001,2,0.2969529032707214,-0.137467086315155,0.1736020445823669,0.9288617372512817,-0.3584790825843811,-0.5039272308349609,-0.785843551158905,-110.8417510986328,-73.42000579833984,12.629638671875,0,2
1562613907.535791,118,0,309170.9891155,0.4864412617157842,-0.4273464901395111,0.5277166657271571,-0.03154100850224495,-0.002582289278507233,0.009900536388158798,0.02024415135383606,0.0901944637298584,-0.04652416706085205,2,0.2966752350330353,-0.1373051702976227,0.1735308468341827,0.9289877414703369,-0.3580742478370667,-0.5035619735717773,-0.7862622141838074,-110.7495269775391,-73.17369842529297,12.00555419921875,0,2
1562613907.568415,119,0,309171.0240895,0.4867518117447008,-0.4281927835720973,0.5268647452510336,0.008418533951044083,-0.02393705770373344,0.008909043855965137,0.01646518707275391,0.08741277456283569,-0.06216925382614136,2,0.2963857054710388,-0.1377719044685364,0.173660472035408,0.9289867877960205,-0.3589175343513489,-0.5028257369995117,-0.786348819732666,-113.2258377075195,-68.96720123291016,15.58892822265625,0,2
1562613907.600447,120,0,309171.0590015,0.4869945544722621,-0.4283802782002077,0.5274351685100653,0.02329479530453682,0.004565445706248283,-0.006661373190581799,0.01452508568763733,0.0906529426574707,-0.05605876445770264,2,0.2966760396957397,-0.137742817401886,0.1736711263656616,0.928896427154541,-0.35894575715065,-0.503318727016449,-0.7860204577445984,-114.0612335205078,-70.6907958984375,13.5064697265625,0,2
1562613907.635304,121,0,309171.0939745,0.4868656629565211,-0.4279537651194655,0.5273187545500942,-0.01026223972439766,-0.0001273732632398605,-0.0007287578191608191,0.01892861723899841,0.09297823905944824,-0.04742932319641113,2,0.2965776026248932,-0.1375802010297775,0.173689678311348,0.9289485216140747,-0.3586347997188568,-0.5032181143760681,-0.7862268090248108,-114.4879379272461,-69.68183135986328,14.3780517578125,0,2
1562613907.666338,122,0,309171.1289165,0.4870894715423377,-0.4282667199278072,0.5260247079305844,-0.0206698402762413,-0.01617880538105965,0.0261448360979557,0.02023899555206299,0.09001189470291138,-0.05834764242172241,2,0.296036422252655,-0.1378743052482605,0.1739157438278198,0.9290351271629333,-0.3591509461402893,-0.5020994544029236,-0.7867062091827393,-117.2165298461914,-66.06185150146484,19.16790771484375,0,2
1562613907.709695,123,0,309171.1638905,0.4878241400312895,-0.4294307967602451,0.5263891543406313,0.04440126940608025,-0.02380926720798016,0.0007133439648896456,0.01343479752540588,0.09691923856735229,-0.05449306964874268,2,0.2963527739048004,-0.1382549107074738,0.1740370690822601,0.9288550615310669,-0.359990268945694,-0.5024145841598511,-0.7861212491989136,-116.5475997924805,-66.52689361572266,21.775390625,0,2
1562613907.732326,124,0,309171.1988025,0.4878806679956325,-0.4299900373298381,0.5266344119236681,-0.01038824766874313,-0.01697690598666668,-0.002409386914223433,0.01373201608657837,0.08876991271972656,-0.04304254055023193,2,0.2965159714221954,-0.138471707701683,0.1739484071731567,0.9287872314453125,-0.3603784739971161,-0.5026266574859619,-0.785807728767395,-117.2774047851562,-63.25363159179688,25.0650634765625,0,2
1562613907.766133,125,0,309171.2337755,0.4873197363345453,-0.4293602061016256,0.5259369170727616,-0.009825422428548336,0.02321221679449081,-0.01107199490070343,0.0159306526184082,0.0871131420135498,-0.05027836561203003,2,0.2961077392101288,-0.1383604854345322,0.1738722622394562,0.9289484024047852,-0.3600293397903442,-0.5020235180854797,-0.7863531708717346,-121.3231811523438,-61.20353698730469,28.446044921875,0,2
1562613907.79837,126,0,309171.2687175,0.4860884407774046,-0.4276733107524354,0.5255654907999497,-0.02634225413203239,0.03203161433339119,-0.02859199605882168,0.02400240302085876,0.09768617153167725,-0.04539692401885986,2,0.2957085967063904,-0.1378112137317657,0.1735982298851013,0.9292083978652954,-0.358779639005661,-0.5017022490501404,-0.7871289849281311,-121.2933120727539,-57.41732025146484,34.805419921875,0,2
1562613907.832176,127,0,309171.2687175,0.4860884407774046,-0.4276733107524354,0.5255654907999497,-0.02634225413203239,0.03203161433339119,-0.02859199605882168,0.02400240302085876,0.09768617153167725,-0.04539692401885986,2,0.2957085967063904,-0.1378112137317657,0.1735982298851013,0.9292083978652954,-0.358779639005661,-0.5017022490501404,-0.7871289849281311,-121.2933120727539,-57.41732025146484,34.805419921875,0,2
1562613907.880798,128,0,309171.303660125,0.4857701077002647,-0.4271442045131374,0.5236407940268216,-0.03465813025832176,-0.003635471686720848,0.03444230556488037,0.02992099523544312,0.08553540706634521,-0.05774092674255371,2,0.2947718501091003,-0.1378822326660156,0.1737784147262573,0.9294617176055908,-0.3587624728679657,-0.500036358833313,-0.7881960868835449,-124.8515319824219,-54.24021911621094,37.34951782226562,0,2
1562613907.898114,129,0,309171.338603125,0.487567423989026,-0.4280336446852213,0.5231595777130519,0.03579796105623245,-0.002018244937062263,0.03694635257124901,0.01996541023254395,0.09032148122787476,-0.05160081386566162,2,0.2947560548782349,-0.1380981951951981,0.1745450347661972,0.9292910099029541,-0.3595632314682007,-0.4996196031570435,-0.7880955338478088,-124.7502288818359,-57.24808502197266,33.16448974609375,0,2
1562613907.930064,130,0,309171.373576125,0.4881973150972523,-0.4287591527250544,0.5220174460945695,-0.03848670423030853,-0.01133417617529631,0.01868638582527637,0.01052135229110718,0.09039869904518127,-0.04111975431442261,2,0.2943474650382996,-0.1385031640529633,0.1748794764280319,0.9292973279953003,-0.3603718876838684,-0.4986298978328705,-0.788352906703949,-125.218864440918,-55.56900787353516,34.3094482421875,0,2
1562613907.967433,131,0,309171.408488125,0.4876013204789592,-0.4285964784498805,0.5206509255164901,-0.01441773027181625,-0.003195963799953461,-0.0121700968593359,0.008829832077026367,0.08527538180351257,-0.05829399824142456,2,0.2936750054359436,-0.1387073397636414,0.1748042553663254,0.92949378490448,-0.3605265021324158,-0.4974449276924133,-0.7890305519104004,-122.9583511352539,-54.86073303222656,42.62344360351562,0,2
1562613907.995804,132,0,309171.443461125,0.4868201842672226,-0.4281517148167178,0.5209774390067736,0.006945736240595579,-0.006685560569167137,-0.02729552611708641,0.02101463079452515,0.09701836109161377,-0.045509934425354,2,0.2937294542789459,-0.1385694891214371,0.174464076757431,0.9295610785484314,-0.3601080775260925,-0.4977281391620636,-0.7890430092811584,-122.2098693847656,-52.51430511474609,43.1640625,0,2
1562613908.029968,133,0,309171.478404125,0.4863001380869093,-0.4282228294047381,0.5201020519865103,-0.02267671748995781,-0.02777044102549553,0.01379124261438847,0.02460873126983643,0.08745357394218445,-0.05214273929595947,2,0.2933042347431183,-0.1388016492128372,0.1743256449699402,0.9296866655349731,-0.3603449761867523,-0.496968686580658,-0.7894134521484375,-123.5899887084961,-58.42293548583984,33.80905151367188,0,2
1562613908.061831,134,0,309171.513346125,0.4871878720123491,-0.4291605409589709,0.5208049339825136,0.06270723044872284,-0.0003147237002849579,-0.004395441152155399,0.01675087213516235,0.08397483825683594,-0.05203670263290405,2,0.2937650680541992,-0.139008566737175,0.1745092272758484,0.9294758439064026,-0.3609396517276764,-0.497578501701355,-0.7887573838233948,-122.0878067016602,-51.96183776855469,43.67266845703125,0,2
1562613908.114538,135,0,309171.548289125,0.4872587371731176,-0.4291610969884549,0.5212506090515318,-0.0160864070057869,-0.003282776102423668,0.003451726166531444,0.01626220345497131,0.0855216383934021,-0.0318533182144165,2,0.2939713001251221,-0.1389358043670654,0.174484059214592,0.9294261336326599,-0.3608477413654327,-0.4979650378227234,-0.7885554432868958,-122.8543167114258,-52.12467956542969,45.22857666015625,0,2
1562613908.128278,136,0,309171.583262125,0.4864503777430089,-0.4284297853005947,0.5203795112059575,-0.002450089901685715,0.01540442183613777,-0.02542088553309441,0.01975589990615845,0.09021240472793579,-0.05747002363204956,2,0.2934580147266388,-0.1388369053602219,0.1743290722370148,0.9296322464942932,-0.3604510426521301,-0.4972094595432281,-0.7892134189605713,-122.0339508056641,-52.25872039794922,44.6724853515625,0,2
1562613908.161596,137,0,309171.618174125,0.486071436599728,-0.4278913330049605,0.5208415348005927,0.007842117920517921,-6.491877138614655e-05,-0.003721128683537245,0.02568936347961426,0.09061384201049805,-0.04628527164459229,2,0.2935934960842133,-0.1385774612426758,0.1741719394922256,0.9296576380729675,-0.359930694103241,-0.4976102709770203,-0.7891982793807983,-124.9086456298828,-56.33348846435547,35.15972900390625,0,2
1562613908.203398,138,0,309171.653147125,0.4862660476832569,-0.4282222374219181,0.5194628290061621,-0.03420085087418556,-0.01910248398780823,0.03421273827552795,0.02510669827461243,0.0873408317565918,-0.0426982045173645,2,0.2930130958557129,-0.1388959735631943,0.1743929088115692,0.9297516942024231,-0.3604763448238373,-0.4964138865470886,-0.7897024750709534,-121.664665222168,-52.12319183349609,43.565673828125,0,2
1562613908.227578,139,0,309171.688090125,0.487217761702162,-0.4293463217757938,0.5179288795903961,-0.01721826568245888,-0.01498552225530148,0.02877005934715271,0.01509711146354675,0.08982154726982117,-0.05554986000061035,2,0.2924845218658447,-0.139494389295578,0.174870178103447,0.9297389984130859,-0.3616803884506226,-0.4950817227363586,-0.7899882197380066,-122.6345291137695,-51.02978515625,45.80377197265625,0,2
1562613908.275173,140,0,309171.723063125,0.4876506012172392,-0.4295297658946733,0.5183273061046569,0.03825792297720909,0.006513457745313644,-0.008990778587758541,0.007728993892669678,0.09286904335021973,-0.04917371273040771,2,0.2927107214927673,-0.1394603848457336,0.1749926954507828,0.929649829864502,-0.3617431223392487,-0.4954278469085693,-0.7897424697875977,-124.8826293945312,-54.04887390136719,40.29586791992188,0,2
1562613908.293384,141,0,309171.757975125,0.4870209120726943,-0.4288325085701979,0.5186111723545394,-0.01292913407087326,0.01059885695576668,-0.01574629545211792,0.01363447308540344,0.08646312355995178,-0.04187774658203125,2,0.2927340865135193,-0.1391885727643967,0.1747651100158691,0.9297260642051697,-0.3611339032649994,-0.4956744015216827,-0.78986656665802,-127.1899490356445,-56.70812225341797,34.57577514648438,0,2
1562613908.325453,142,0,309171.792948125,0.4867867424161758,-0.4284668092316617,0.5184063514153266,0.01946662366390228,0.01324479281902313,-0.01065466832369566,0.01880428194999695,0.08659017086029053,-0.04560518264770508,2,0.2925933301448822,-0.1390815675258636,0.1747363805770874,0.9297917485237122,-0.360887199640274,-0.4954965114593506,-0.7900909185409546,-123.6748123168945,-53.46440887451172,40.37149047851562,0,2
1562613908.360256,143,0,309171.827861125,0.4860089727937319,-0.4273793668099758,0.518014791791792,-0.02921189181506634,0.005171546712517738,-0.007142712362110615,0.0220373272895813,0.09227678179740906,-0.0421520471572876,2,0.2922674119472504,-0.1387445628643036,0.1745845675468445,0.9299731254577637,-0.3601081967353821,-0.4951563477516174,-0.7906594276428223,-124.3233795166016,-58.11570739746094,34.29299926757812,0,2
1562613908.391408,144,0,309171.827861125,0.4860089727937319,-0.4273793668099758,0.518014791791792,-0.02921189181506634,0.005171546712517738,-0.007142712362110615,0.0220373272895813,0.09227678179740906,-0.0421520471572876,2,0.2922674119472504,-0.1387445628643036,0.1745845675468445,0.9299731254577637,-0.3601081967353821,-0.4951563477516174,-0.7906594276428223,-124.3233795166016,-58.11570739746094,34.29299926757812,0,2
1562613908.441897,145,0,309171.862834125,0.4865955909779774,-0.4279062855067521,0.5173193457548829,0.03479969501495361,0.003085421398282051,0.01518707722425461,0.01798927783966064,0.08533930778503418,-0.06160569190979004,2,0.2920399308204651,-0.1390012949705124,0.1748705357313156,0.9299524426460266,-0.3606675565242767,-0.4945520460605621,-0.790782630443573,-124.9170608520508,-56.51065826416016,35.57421875,0,2
1562613908.457166,146,0,309171.897776125,0.4870245964090114,-0.427411206720724,0.5183478964313484,0.01788040995597839,0.01567061245441437,-0.008966585621237755,0.01332706212997437,0.08608159422874451,-0.04417544603347778,2,0.2924911379814148,-0.1385642141103745,0.1750089526176453,0.9298498630523682,-0.3600649535655975,-0.495445728302002,-0.7904977798461914,-125.2016067504883,-55.94087982177734,38.09622192382812,0,2
1562613908.491413,147,0,309171.932749125,0.486932297915468,-0.4273939278117131,0.5176036536865946,-0.009046932682394981,0.003195622935891151,0.003312722779810429,0.0151141881942749,0.09103396534919739,-0.04874670505523682,2,0.2921469509601593,-0.1386740356683731,0.1750650554895401,0.929931104183197,-0.3602040410041809,-0.4947991073131561,-0.7908393144607544,-125.8853530883789,-53.75453948974609,37.82733154296875,0,2
1562613908.523143,148,0,309171.967662125,0.4867101846724785,-0.4267836719939719,0.5177686334096582,0.003686514683067799,0.00442054308950901,-0.01150266267359257,0.01481062173843384,0.08687448501586914,-0.05105781555175781,2,0.2921527028083801,-0.138399600982666,0.1750295460224152,0.9299768805503845,-0.3596875667572021,-0.4949424862861633,-0.7909846901893616,-125.3668594360352,-54.30744934082031,39.5433349609375,0,2
1562613908.556996,149,0,309172.002635125,0.4866994205956168,-0.4266629053938509,0.5177084396915809,0.01645595766603947,0.00012177973985672,0.003639495000243187,0.01878625154495239,0.08758515119552612,-0.04965972900390625,2,0.2921141982078552,-0.1383534520864487,0.1750499755144119,0.9299919605255127,-0.3596043586730957,-0.4948901832103729,-0.7910552620887756,-127.9865570068359,-54.73141479492188,35.06912231445312,0,2
1562613908.594581,150,0,309172.037547125,0.486625055035932,-0.426284717381444,0.5174363539769796,-0.02048414386808872,0.01058749295771122,0.003135356120765209,0.01889336109161377,0.08960676193237305,-0.04045921564102173,2,0.2919529676437378,-0.1382265686988831,0.1751058250665665,0.9300509691238403,-0.3593608438968658,-0.494653731584549,-0.7913137674331665,-126.0876693725586,-55.81597900390625,35.83111572265625,0,2
1562613908.622885,151,0,309172.072520125,0.4868798676957207,-0.4263502641917772,0.5161534929570265,-0.003446451155468822,-0.003705482929944992,0.01820697821676731,0.01745301485061646,0.08469051122665405,-0.05353105068206787,2,0.29139643907547,-0.138399600982666,0.1753806918859482,0.9301480054855347,-0.3596748411655426,-0.4935384094715118,-0.7918673157691956,-126.3524475097656,-51.82789611816406,44.3177490234375,0,2
1562613908.657273,152,0,309172.107463125,0.4874058937431283,-0.426601757970904,0.5163718860348796,0.01896232552826405,0.008182123303413391,0.0064894356764853,0.01626497507095337,0.08237826824188232,-0.04448831081390381,2,0.2915536165237427,-0.138409286737442,0.1755604147911072,0.9300634264945984,-0.3598293662071228,-0.4937283396720886,-0.7916787266731262,-126.0190963745117,-50.26750183105469,45.91680908203125,0,2
1562613908.68929,153,0,309172.142436125,0.4876488291228999,-0.4264711922831865,0.5151112121098127,-0.03889674693346024,7.682852447032928e-05,0.0175256822258234,0.01437443494796753,0.07906767725944519,-0.04604125022888184,2,0.290989100933075,-0.1384899765253067,0.1758555173873901,0.9301724433898926,-0.3599832057952881,-0.4926316440105438,-0.7922917604446411,-126.3852386474609,-52.89311218261719,42.20413208007812,0,2
1562613908.721344,154,0,309172.177348125,0.4874667513412284,-0.4260970090254682,0.5144624618235147,0.003625646699219942,0.01325942203402519,-0.009837964549660683,0.0124703049659729,0.08675739169120789,-0.05589973926544189,2,0.2906503081321716,-0.1384333670139313,0.1759091168642044,0.9302765727043152,-0.3598187267780304,-0.4920669496059418,-0.7927172183990479,-126.907829284668,-51.87209320068359,39.70608520507812,0,2
1562613908.761984,155,0,309172.212321125,0.4867993645051903,-0.4248514346633774,0.5143599732415428,-0.01322489976882935,0.01543977297842503,-0.002801362657919526,0.02256485819816589,0.08323496580123901,-0.05027866363525391,2,0.2904483377933502,-0.1379652619361877,0.1757928431034088,0.9304311275482178,-0.358851820230484,-0.4919777512550354,-0.7932106852531433,-125.7522277832031,-53.41653442382812,41.172607421875,0,2
1562613908.786531,156,0,309172.247264125,0.4877865294548571,-0.4253340845387016,0.5139626104750982,0.01357567682862282,0.005386015400290489,0.02853578142821789,0.02295258641242981,0.08232387900352478,-0.04847335815429688,2,0.2903792262077332,-0.1381020992994308,0.1762332320213318,0.9303491115570068,-0.3593152761459351,-0.4916317462921143,-0.7932154536247253,-126.9384460449219,-51.44961547851562,44.54507446289062,0,2
1562613908.840724,157,0,309172.2822155,0.4884687653237617,-0.4256365750412922,0.5134473448574058,0.003133376128971577,-0.002343885600566864,0.02017670124769211,0.01298260688781738,0.083018958568573,-0.04230880737304688,2,0.2902199923992157,-0.1382160484790802,0.1765731871128082,0.9303175210952759,-0.3596597611904144,-0.4911829829216003,-0.793337345123291,-127.0380401611328,-49.95111083984375,46.68734741210938,0,2
1562613908.852566,158,0,309172.3171585,0.488492243614103,-0.4255100701809482,0.512659789388341,-0.01817435026168823,0.01539066433906555,-0.008104007691144943,0.01156175136566162,0.08695533871650696,-0.04204809665679932,2,0.2898543179035187,-0.1382642984390259,0.1767041236162186,0.9303994178771973,-0.3597189486026764,-0.4904968440532684,-0.7937349081039429,-129.4291381835938,-53.99991607666016,38.37054443359375,0,2
1562613908.886482,159,0,309172.3521315,0.4883068713971588,-0.4248292231406711,0.5124048069800816,0.01059890538454056,0.003065785393118858,0.00674061244353652,0.01778596639633179,0.0840165913105011,-0.05020326375961304,2,0.2896659970283508,-0.138010174036026,0.1767494082450867,0.9304872751235962,-0.3592300117015839,-0.4902746081352234,-0.7940936088562012,-130.0001525878906,-49.86211395263672,44.72500610351562,0,2
1562613908.918485,160,0,309172.3870435,0.4885063984542538,-0.4248895685338842,0.5127228287633557,0.02441355399787426,0.002315448597073555,-0.003060754388570786,0.01708292961120605,0.08290562033653259,-0.04975694417953491,2,0.2898289859294891,-0.137964740395546,0.1767925024032593,0.9304349422454834,-0.3592136204242706,-0.490551769733429,-0.7939297556877136,-132.617431640625,-55.3653564453125,33.43258666992188,0,2
1562613908.952399,161,0,309172.4220165,0.4891029305167882,-0.4249825475556962,0.5132998827560824,0.0186038613319397,0.001605700701475143,0.007838208228349686,0.01481211185455322,0.08760520815849304,-0.04199212789535522,2,0.2901393175125122,-0.1378405094146729,0.1769821047782898,0.9303205609321594,-0.3591706454753876,-0.4910545349121094,-0.7936383485794067,-130.379638671875,-52.30158233642578,45.2694091796875,0,2
1562613908.994935,162,0,309172.4220165,0.4891029305167882,-0.4249825475556962,0.5132998827560824,0.0186038613319397,0.001605700701475143,0.007838208228349686,0.01481211185455322,0.08760520815849304,-0.04199212789535522,2,0.2901393175125122,-0.1378405094146729,0.1769821047782898,0.9303205609321594,-0.3591706454753876,-0.4910545349121094,-0.7936383485794067,-130.379638671875,-52.30158233642578,45.2694091796875,0,2
1562613909.019025,163,0,309172.4569595,0.4893158768792664,-0.4245260500953764,0.5130190197527168,-0.003762908047065139,0.01133033074438572,0.01345798745751381,0.01703912019729614,0.08369812369346619,-0.0414886474609375,2,0.2899865508079529,-0.1376367211341858,0.1771835833787918,0.9303600192070007,-0.3588651120662689,-0.4908098578453064,-0.7939278483390808,-132.0625,-51.31562805175781,44.13955688476562,0,2
1562613909.050291,164,0,309172.4919325,0.4896434913835601,-0.4243919973098036,0.5118390310446563,-0.03074982576072216,0.007588168606162071,0.02013119496405125,0.01558417081832886,0.07828903198242188,-0.04773318767547607,2,0.2894635200500488,-0.1376926451921463,0.1775074601173401,0.9304529428482056,-0.3589969277381897,-0.4897814393043518,-0.7945032119750977,-131.5197143554688,-53.73394775390625,37.20309448242188,0,2
1562613909.084175,165,0,309172.5268445,0.4900578872889959,-0.4245219551007529,0.5111896257176944,0.00402375590056181,-0.0007683970034122467,0.01578630320727825,0.01233965158462524,0.07662332057952881,-0.05385273694992065,2,0.2892098724842072,-0.137784406542778,0.1777651160955429,0.9304690361022949,-0.3592311143875122,-0.4892151355743408,-0.7947462201118469,-130.9844207763672,-53.07244110107422,41.5638427734375,0,2
1562613909.116307,166,0,309172.5618175,0.4899070193197644,-0.4234678185918948,0.5113774637447207,-0.002696098759770393,0.03813629597425461,-0.0122379120439291,0.01683378219604492,0.08447772264480591,-0.0421748161315918,2,0.2891907393932343,-0.1372893899679184,0.1778231710195541,0.9305371046066284,-0.3583553731441498,-0.489378958940506,-0.7950406670570374,-134.1134033203125,-54.17560577392578,33.72409057617188,0,2
1562613909.160987,167,0,309172.5967295,0.4898083512044351,-0.4228194630427527,0.5104308654622475,-0.02421960607171059,0.003401398658752441,0.02762195095419884,0.02165001630783081,0.07252737879753113,-0.05062925815582275,2,0.2886980473995209,-0.1371348947286606,0.177992582321167,0.9306803941726685,-0.3580297231674194,-0.4885532259941101,-0.795694887638092,-131.9202575683594,-53.18910980224609,37.3988037109375,0,2
1562613909.182117,168,0,309172.6317035,0.4907558204892917,-0.4227962809955219,0.5102478234284068,0.02312944456934929,0.01213330589234829,0.00789828784763813,0.01835715770721436,0.07802847027778625,-0.04635834693908691,2,0.2886780798435211,-0.1370130628347397,0.1784603148698807,0.9306150078773499,-0.3580479919910431,-0.4883935153484344,-0.7957847714424133,-134.8787231445312,-55.00626373291016,34.1759033203125,0,2
1562613909.216772,169,0,309172.6666455,0.4911479640352496,-0.422847725694363,0.5096991133525367,-0.02655941992998123,-0.0157172791659832,0.02749665826559067,0.0187523365020752,0.07439035177230835,-0.04430115222930908,2,0.2884612679481506,-0.1370575875043869,0.1787058413028717,0.9306285977363586,-0.3581988513469696,-0.4879146218299866,-0.7960106134414673,-133.3968048095703,-51.75702667236328,40.354248046875,0,2
1562613909.248089,170,0,309172.7016185,0.4922401823647088,-0.4232149935026064,0.5094457729344312,0.0239235982298851,0.005862096324563026,0.01866518147289753,0.01129871606826782,0.07796844840049744,-0.04607498645782471,2,0.2884544134140015,-0.1371066123247147,0.1791936308145523,0.9305295944213867,-0.3585419058799744,-0.4876934587955475,-0.7959916591644287,-135.3999633789062,-54.5653076171875,32.86663818359375,0,2
1562613909.282255,171,0,309172.7365305,0.4922905809326727,-0.422971129698518,0.5091653492122495,-0.0346134640276432,0.003768967464566231,0.01409115735441446,0.01407486200332642,0.07889807224273682,-0.04043030738830566,2,0.2883090972900391,-0.1370254009962082,0.1792882829904556,0.930568516254425,-0.3584039211273193,-0.4874486327171326,-0.7962037920951843,-135.3569030761719,-57.74759674072266,28.0426025390625,0,2
1562613909.320499,172,0,309172.7715045,0.4930234810064766,-0.4233476515585814,0.5083365594656788,0.005385462660342455,-0.004787665791809559,0.02204756438732147,0.01171830296516418,0.07725790143013,-0.05005425214767456,2,0.2880182266235352,-0.1372118443250656,0.179681584239006,0.9305551648139954,-0.3588695228099823,-0.4867248237133026,-0.7964368462562561,-135.1526489257812,-60.42745208740234,23.85687255859375,0,2
1562613909.347864,173,0,309172.8064165,0.4928894961246133,-0.4229412651180909,0.5080690486091598,-0.01501864939928055,0.01098821125924587,-0.006973310373723507,0.01381272077560425,0.07900738716125488,-0.04220575094223022,2,0.287851482629776,-0.1370797753334045,0.1797121316194534,0.9306203722953796,-0.3585992753505707,-0.4864911139011383,-0.7967013120651245,-135.6823272705078,-58.89028167724609,25.73870849609375,0,2
1562613909.39856,174,0,309172.8413895,0.4927833005277159,-0.4227233249089354,0.507637254683298,0.01191013492643833,-0.003557411953806877,0.00520116463303566,0.01857730746269226,0.07966715097427368,-0.05014491081237793,2,0.287629246711731,-0.137054517865181,0.17974953353405,0.9306855797767639,-0.3585117757320404,-0.4861138164997101,-0.7969709634780884,-135.8939208984375,-57.64161682128906,26.14080810546875,0,2
1562613909.41386,175,0,309172.8763315,0.4927743907761963,-0.422818795423755,0.5084780098509165,0.03165747597813606,-0.01014314312487841,-0.01945917494595051,0.017600417137146,0.080677330493927,-0.04708898067474365,2,0.2880176305770874,-0.1369816958904266,0.1796236634254456,0.9306004643440247,-0.3584200143814087,-0.486848384141922,-0.7965637445449829,-139.2737579345703,-56.67539215087891,28.00396728515625,0,2
1562613909.445757,176,0,309172.9113055,0.4929596117899655,-0.4233789486561068,0.5097597432537153,0.05245664715766907,-0.01622129045426846,-0.01557620149105787,0.01392978429794312,0.08054685592651367,-0.04322183132171631,2,0.2886604070663452,-0.1370348185300827,0.1794642955064774,0.9304242134094238,-0.3586094975471497,-0.4879675507545471,-0.7957932353019714,-141.2512512207031,-58.27616119384766,22.98272705078125,0,2
1562613909.48083,177,0,309172.9462175,0.4929404431835241,-0.4238361268422938,0.5112195109312936,0.04292842745780945,-0.01971209980547428,-0.02464762516319752,0.01387840509414673,0.07536795735359192,-0.04032933712005615,2,0.2893602550029755,-0.137044221162796,0.1792013794183731,0.9302560091018677,-0.3586799204349518,-0.4892412126064301,-0.7949790358543396,-145.6092529296875,-59.65129089355469,14.74371337890625,0,2
1562613909.511646,178,0,309172.9811905,0.4925055426225477,-0.4239109200852654,0.5116132658833219,-0.01204271800816059,-0.006448554806411266,-0.008838936686515808,0.02078604698181152,0.0725073516368866,-0.03189557790756226,2,0.2895151674747467,-0.1370863765478134,0.1789375394582748,0.9302524328231812,-0.3586601316928864,-0.4895845651626587,-0.7947765588760376,-144.4073791503906,-59.35201263427734,15.8023681640625,0,2
1562613909.560462,179,0,309173.0161325,0.4923026251253827,-0.4248447194086868,0.5108313818228567,-0.008283284492790699,-0.03819004818797112,0.008705581538379192,0.01761284470558167,0.06848293542861938,-0.04837703704833984,2,0.2892312109470367,-0.1376603841781616,0.1788088530302048,0.9302807450294495,-0.3595598042011261,-0.4889026582241058,-0.7947898507118225,-145.0535888671875,-53.62738800048828,27.7689208984375,0,2
1562613909.578128,180,0,309173.0161325,0.4923026251253827,-0.4248447194086868,0.5108313818228567,-0.008283284492790699,-0.03819004818797112,0.008705581538379192,0.01761284470558167,0.06848293542861938,-0.04837703704833984,2,0.2892312109470367,-0.1376603841781616,0.1788088530302048,0.9302807450294495,-0.3595598042011261,-0.4889026582241058,-0.7947898507118225,-145.0535888671875,-53.62738800048828,27.7689208984375,0,2
1562613909.611421,181,0,309173.0510755,0.4922415296972348,-0.4248073844705619,0.5110145100994347,-0.0002955924719572067,0.001006040722131729,-0.01132131088525057,0.01646280288696289,0.07140475511550903,-0.04284536838531494,2,0.2893064916133881,-0.1376260221004486,0.178762212395668,0.930271327495575,-0.359493225812912,-0.4890623986721039,-0.7947216629981995,-148.7247772216797,-53.63924407958984,27.15203857421875,0,2
1562613909.643314,182,0,309173.0860185,0.4923823650143311,-0.4256697363980529,0.5112461255627208,0.0296609029173851,-0.02513114735484123,0.005155624356120825,0.01499640941619873,0.07317876815795898,-0.04484635591506958,2,0.289497971534729,-0.1379740536212921,0.1786730289459229,0.9301773309707642,-0.3601316213607788,-0.4892644286155701,-0.7943081855773926,-148.9694671630859,-52.13915252685547,30.55078125,0,2
1562613909.677337,183,0,309173.1209915,0.4922292780967063,-0.4257511668399959,0.5115086201715424,-0.01440372597426176,-0.01680373772978783,-0.006805531214922667,0.01068982481956482,0.07090556621551514,-0.03821790218353271,2,0.2896133065223694,-0.1379970461130142,0.1785561144351959,0.9301605820655823,-0.3601432740688324,-0.48949334025383,-0.7941619157791138,-152.4264984130859,-51.46629333496094,28.52886962890625,0,2
1562613909.720491,184,0,309173.1559035,0.4927358104095775,-0.4266817868008972,0.5114621495724714,0.03770391270518303,-0.008493139408528805,0.008662172593176365,0.01079833507537842,0.07986775040626526,-0.04433155059814453,2,0.2897104322910309,-0.1383630335330963,0.1786629110574722,0.9300553798675537,-0.360891580581665,-0.4894528090953827,-0.7938470840454102,-154.1626281738281,-53.33429718017578,21.48883056640625,0,2
1562613909.743178,185,0,309173.1908765,0.4920086651484132,-0.4258753840259048,0.5118939156558996,-0.008509085513651371,-0.001566728577017784,-0.02885730378329754,0.01068010926246643,0.07830691337585449,-0.03165996074676514,2,0.2897833585739136,-0.1380324065685272,0.1783857196569443,0.9301350116729736,-0.3601639866828918,-0.4898292720317841,-0.7939453125,-154.8678894042969,-53.18311309814453,21.7213134765625,0,2
1562613909.775534,186,0,309173.2258195,0.4916947250149127,-0.4261424243240591,0.5115756537203693,0.03972532972693443,0.006307505071163177,-0.006495431065559387,0.01635852456092834,0.06754621863365173,-0.05103856325149536,2,0.2896415889263153,-0.1382469683885574,0.1782421767711639,0.9301748871803284,-0.3604404032230377,-0.4895517826080322,-0.7939910292625427,-154.2420806884766,-50.90438842773438,26.34747314453125,0,2
1562613909.809146,187,0,309173.2607925,0.4920661959693245,-0.4260136902067116,0.5131473708292207,0.04707439988851547,0.0007317755371332169,-0.01640713959932327,0.0160900354385376,0.07956871390342712,-0.02422893047332764,2,0.2903662025928497,-0.1379114985466003,0.1782303154468536,0.9300009608268738,-0.3600197732448578,-0.490921676158905,-0.7933357954025269,-155.006103515625,-48.07376861572266,30.1234130859375,0,2
1562613909.841278,188,0,309173.2956924167,0.4918987544185642,-0.4263114873901357,0.5126799345158062,-0.01592668332159519,-0.003763219341635704,0.002422522753477097,0.01600956916809082,0.06730479001998901,-0.03753966093063354,2,0.2901699244976044,-0.1381402462720871,0.1781697124242783,0.9300398826599121,-0.3603508472442627,-0.4905143976211548,-0.7934373617172241,-155.8014526367188,-44.04319000244141,35.734375,0,2
1562613909.881331,189,0,309173.3306654167,0.4919142158660891,-0.4260693558315652,0.5136368635203589,0.04186940565705299,0.02267833799123764,-0.03028132393956184,0.01485997438430786,0.07557088136672974,-0.03638541698455811,2,0.2905819118022919,-0.1378903687000275,0.1780882328748703,0.9299638867378235,-0.3599645793437958,-0.4913480579853058,-0.7930967807769775,-156.6711120605469,-42.64103698730469,38.04904174804688,0,2
1562613909.906996,190,0,309173.3655774167,0.4902393730304702,-0.4244277010303209,0.5137429884132679,-0.04039499908685684,0.002823241055011749,-0.0266291182488203,0.0244748592376709,0.07288622856140137,-0.03233283758163452,2,0.2903686463832855,-0.1373552232980728,0.1775340735912323,0.9302157163619995,-0.3586406409740448,-0.4914405047893524,-0.7936391830444336,-159.1697082519531,-42.98452758789062,34.62673950195312,0,2
1562613909.959786,191,0,309173.4005504167,0.4902142903809406,-0.4247499585773575,0.5133045593907701,0.03185340017080307,-0.009740256704390049,0.006212613545358181,0.02382802963256836,0.06255525350570679,-0.05471312999725342,2,0.2901973128318787,-0.1375704258680344,0.1775321811437607,0.9302377104759216,-0.3589851260185242,-0.4910586178302765,-0.7937197685241699,-161.5524444580078,-43.53457641601562,31.271484375,0,2
1562613909.972928,192,0,309173.4354934167,0.4906182387844405,-0.4246719449153735,0.5147387783314895,0.03974700719118118,0.003877816721796989,-0.01172058004885912,0.01671546697616577,0.07915613055229187,-0.02662664651870728,2,0.2908665239810944,-0.1372736096382141,0.1775463223457336,0.9300698041915894,-0.3586326539516449,-0.4923074841499329,-0.7931052446365356,-161.2151184082031,-42.56172180175781,33.68087768554688,0,2
1562613910.006801,193,0,309173.4704664167,0.4902069154391225,-0.4247169900279307,0.513273703961329,-0.03539194166660309,-0.01594629697501659,0.01284066587686539,0.01364582777023315,0.06992897391319275,-0.0412445068359375,2,0.2901799380779266,-0.1375605016946793,0.1775375157594681,0.9302435517311096,-0.3589651882648468,-0.4910317361354828,-0.7937453985214233,-162.2778015136719,-42.16461181640625,34.57382202148438,0,2
1562613910.038945,194,0,309173.5053784167,0.4905778944098381,-0.4248718981999731,0.5135510350871968,0.0603635236620903,0.02697845920920372,-0.01634478755295277,0.01076769828796387,0.0731157660484314,-0.04662764072418213,2,0.2903445661067963,-0.1375396847724915,0.1776517927646637,0.9301735162734985,-0.35903200507164,-0.4912733137607574,-0.7935657501220703,-163.8210144042969,-40.34532165527344,37.61911010742188,0,2
1562613910.072722,195,0,309173.5403514167,0.49008997541333,-0.4243437327839735,0.514083467818313,-0.006326282396912575,0.008576931431889534,-0.02227159775793552,0.01756429672241211,0.07277125120162964,-0.026519775390625,2,0.2905048727989197,-0.137289971113205,0.1774328798055649,0.9302021265029907,-0.3585050702095032,-0.4917369782924652,-0.7935167551040649,-164.3490600585938,-40.17599487304688,38.72030639648438,0,2
1562613910.114928,196,0,309173.5752644167,0.4896176013130314,-0.424259542837078,0.5128326173393154,-0.01958072558045387,-0.005202257074415684,0.002591317752376199,0.02112299203872681,0.06495141983032227,-0.0432782769203186,2,0.2898993790149689,-0.1374951899051666,0.1773865967988968,0.9303694367408752,-0.3586911857128143,-0.4906474351882935,-0.7941068410873413,-163.6040496826172,-37.33386993408203,43.35928344726562,0,2
1562613910.138708,197,0,309173.5752644167,0.4896176013130314,-0.424259542837078,0.5128326173393154,-0.01958072558045387,-0.005202257074415684,0.002591317752376199,0.02112299203872681,0.06495141983032227,-0.0432782769203186,2,0.2898993790149689,-0.1374951899051666,0.1773865967988968,0.9303694367408752,-0.3586911857128143,-0.4906474351882935,-0.7941068410873413,-163.6040496826172,-37.33386993408203,43.35928344726562,0,2
1562613910.170696,198,0,309173.6102374167,0.4899598489972509,-0.4243889683404595,0.5133526007429343,0.03529299423098564,0.007912175729870796,-0.005926449317485094,0.01938116550445557,0.06509989500045776,-0.04166555404663086,2,0.2901695072650909,-0.1374326795339584,0.1774600148200989,0.9302805066108704,-0.3586888611316681,-0.4911004602909088,-0.7938278317451477,-166.0970306396484,-34.43681335449219,46.67782592773438,0,2
1562613910.204543,199,0,309173.6451794167,0.4900136982979302,-0.42457059500538,0.5134798767597878,-0.01918942108750343,-0.02083664759993553,0.01149488519877195,0.01809602975845337,0.06487530469894409,-0.02979445457458496,2,0.2902468740940094,-0.137491449713707,0.1774422973394394,0.9302510619163513,-0.3588072657585144,-0.491211324930191,-0.7937057018280029,-167.3020782470703,-37.39014434814453,39.4736328125,0,2
1562613910.236389,200,0,309173.6801524167,0.4902192558964171,-0.4250064869081802,0.5126174884039241,-0.0122070349752903,-0.01266517117619514,0.006465983111411333,0.01481777429580688,0.06616765260696411,-0.04171103239059448,2,0.2899097800254822,-0.1377856731414795,0.1775859296321869,0.9302852153778076,-0.3593277335166931,-0.4904599785804749,-0.7939348816871643,-168.9744567871094,-37.15224456787109,39.191650390625,0,2
1562613910.281564,201,0,309173.7150654167,0.4903716153530617,-0.4250975390547008,0.5123946550579023,0.01195175386965275,0.0003127288073301315,0.008514145389199257,0.01484370231628418,0.0736331045627594,-0.03885173797607422,2,0.2898276150226593,-0.137837290763855,0.1776723563671112,0.9302866458892822,-0.3594450950622559,-0.4902657568454742,-0.7940016984939575,-170.3380889892578,-38.32466888427734,36.8050537109375,0,2
1562613910.302318,202,0,309173.7500384167,0.4902921617914857,-0.4248405107706489,0.5123134450429118,-0.01160950027406216,-0.002088285982608795,-0.007904475554823875,0.01660892367362976,0.06942704319953918,-0.0362510085105896,2,0.289762556552887,-0.1377406716346741,0.1776831150054932,0.9303192496299744,-0.3592574298381805,-0.4901949763298035,-0.7941303253173828,-168.5020141601562,-34.28096771240234,47.10687255859375,0,2
1562613910.356076,203,0,309173.7849504167,0.490608861136839,-0.4253184096288331,0.5112706547345625,-0.008425994776189327,-0.01136476453393698,0.02286980673670769,0.01694044470787048,0.07275861501693726,-0.0333632230758667,2,0.2893553376197815,-0.138063833117485,0.1778957843780518,0.9303573966026306,-0.3598476052284241,-0.489285796880722,-0.7944237589836121,-170.8643493652344,-35.52391815185547,43.61090087890625,0,2
1562613910.36812,204,0,309173.8199234167,0.490425648717759,-0.4252666147756805,0.5105481585643401,0.004207544028759003,0.002175504341721535,-0.01197226997464895,0.01432910561561584,0.06954872608184814,-0.04403913021087646,2,0.2890113294124603,-0.1381678730249405,0.1779112666845322,0.9304459095001221,-0.3599522113800049,-0.4886555671691895,-0.7947641611099243,-169.9385070800781,-32.42828369140625,49.0941162109375,0,2
1562613910.402328,205,0,309173.8548664167,0.4904490900645586,-0.4252980338861549,0.5103415292655086,0.00628854101523757,-0.004582960158586502,-0.002460475545376539,0.01804265379905701,0.06402760744094849,-0.04089134931564331,2,0.2889222800731659,-0.1382081657648087,0.1779442876577377,0.9304612874984741,-0.3600188195705414,-0.4884752929210663,-0.7948448657989502,-171.4844665527344,-31.12410736083984,48.6641845703125,0,2
1562613910.434012,206,0,309173.8898394167,0.4910413868344948,-0.4256714732195746,0.5107821765202596,0.03486305847764015,-0.005454583093523979,0.0115352189168334,0.01600775122642517,0.06906652450561523,-0.03173142671585083,2,0.289195716381073,-0.1382342725992203,0.1781089752912521,0.9303410053253174,-0.3602267205715179,-0.4888597428798676,-0.7945142388343811,-171.6308288574219,-27.14897155761719,56.7554931640625,0,2
1562613910.468177,207,0,309173.9247514167,0.4910957483998658,-0.4258173217652768,0.5106655122648619,-0.00723064923658967,-0.001389699056744576,-0.01164487469941378,0.0113409161567688,0.07029223442077637,-0.03151845932006836,2,0.2891597151756287,-0.1383106857538223,0.1781282424926758,0.930337131023407,-0.36036616563797,-0.4887579679489136,-0.7945136427879333,-175.0910491943359,-27.10432434082031,51.92648315429688,0,2
1562613910.520698,208,0,309173.9597244167,0.4911045136053422,-0.4261363121737554,0.5107444104096117,0.01308500953018665,-0.00713413767516613,0.0009675894398242235,0.009076207876205444,0.06492891907691956,-0.04451656341552734,2,0.28922438621521,-0.1384466886520386,0.1780759990215302,0.9303068518638611,-0.3606036603450775,-0.4888267815113068,-0.7943635582923889,-176.1731262207031,-26.67150115966797,50.44400024414062,0,2
1562613910.534071,209,0,309173.9946674167,0.4907176690587012,-0.4254915299606102,0.5115587006477221,0.008224093355238438,0.01755202189087868,-0.02216480858623981,0.0104585587978363,0.06631147861480713,-0.03909307718276978,2,0.2895084917545319,-0.1380880773067474,0.1778841614723206,0.9303084015846252,-0.3599269390106201,-0.4895370006561279,-0.7942330241203308,-177.8350372314453,-25.10970306396484,51.87136840820312,0,2
1562613910.566059,210,0,309174.0296094167,0.4899858598280383,-0.4249794727192592,0.51126925655566,-0.04327033832669258,-0.01412259414792061,0.001548497821204364,0.02079099416732788,0.06434983015060425,-0.03473585844039917,2,0.2892815768718719,-0.1379964798688889,0.1776551753282547,0.9304363131523132,-0.3595786094665527,-0.4892846047878265,-0.7945463061332703,-176.4147186279297,-22.43243789672852,56.78671264648438,0,2
1562613910.599896,211,0,309174.0645524167,0.4899055376211542,-0.4250681182348227,0.5110678334114535,0.01437972392886877,-0.01077948603779078,0.007879378274083138,0.01954412460327148,0.05202782154083252,-0.05544507503509521,2,0.289192795753479,-0.1380776464939117,0.1776309609413147,0.9304565191268921,-0.3596896827220917,-0.4891089200973511,-0.7946041822433472,-176.3188323974609,-20.94900512695312,61.45159912109375,0,2
1562613910.631939,212,0,309174.0995254167,0.4898806014376239,-0.4242660953863919,0.5121807024438308,-0.006536210421472788,0.01853659003973007,-0.01226397324353456,0.02513581514358521,0.06282618641853333,-0.01964294910430908,2,0.2896232008934021,-0.1375517398118973,0.1775919795036316,0.9304079413414001,-0.3588279783725739,-0.4900792837142944,-0.7943958640098572,-180.9121246337891,-25.11618041992188,48.5863037109375,0,2
1562613910.676571,213,0,309174.1344374167,0.4896186420893976,-0.4243697698310916,0.5109559579737608,-0.02826312556862831,-0.02600272931158543,0.02700262144207954,0.02392435073852539,0.05925443768501282,-0.03483438491821289,2,0.2890603840351105,-0.1378099322319031,0.1776128560304642,0.9305408000946045,-0.3591572046279907,-0.4890113174915314,-0.7949050068855286,-180.0999145507812,-20.91839599609375,55.29119873046875,0,2
1562613910.698941,214,0,309174.1344374167,0.4896186420893976,-0.4243697698310916,0.5109559579737608,-0.02826312556862831,-0.02600272931158543,0.02700262144207954,0.02392435073852539,0.05925443768501282,-0.03483438491821289,2,0.2890603840351105,-0.1378099322319031,0.1776128560304642,0.9305408000946045,-0.3591572046279907,-0.4890113174915314,-0.7949050068855286,-180.0999145507812,-20.91839599609375,55.29119873046875,0,2
1562613910.731868,215,0,309174.1694104167,0.48987545912943,-0.4242798443707694,0.5104707127945651,-0.009456903673708439,0.003704283386468887,0.01294120587408543,0.01349824666976929,0.06400322914123535,-0.04145205020904541,2,0.2888505756855011,-0.1377991437911987,0.1778078228235245,0.9305703043937683,-0.3591833710670471,-0.4885880053043365,-0.7951534986495972,-181.6361694335938,-18.05817794799805,59.00045776367188,0,2
1562613910.764323,216,0,309174.2043534167,0.4910136348935215,-0.4252895537206315,0.5103952831353287,0.01351137831807137,-0.01393230352550745,0.02983974851667881,0.004505842924118042,0.06595152616500854,-0.04062235355377197,2,0.2889848351478577,-0.1381150931119919,0.1782012134790421,0.9304065108299255,-0.360001266002655,-0.4885222017765045,-0.794823944568634,-184.6096343994141,-18.72500991821289,56.548095703125,0,2
1562613910.797675,217,0,309174.2393264167,0.4912531463673501,-0.4253704277621203,0.5095457159049768,-0.03457872942090034,-0.003229008987545967,0.016582190990448,-0.001178830862045288,0.06829139590263367,-0.03107219934463501,2,0.2886243462562561,-0.1382377445697784,0.1784105747938156,0.9304600954055786,-0.3602366745471954,-0.4877807199954987,-0.7951726317405701,-184.0715789794922,-14.13062286376953,67.21865844726562,0,2
1562613910.840098,218,0,309174.2742384167,0.4909550438875895,-0.4251530369042266,0.5085393139767221,-0.03114455007016659,0.01002639904618263,-0.009297143667936325,0.003657162189483643,0.0725536048412323,-0.03771805763244629,2,0.2881290912628174,-0.1383212357759476,0.1784330159425735,0.9305968880653381,-0.3602661192417145,-0.4869019091129303,-0.7956977486610413,-184.2096252441406,-10.33027648925781,73.4395751953125,0,2
1562613910.86371,219,0,309174.309203625,0.4906801046715396,-0.4249175268685122,0.5079187098367737,-0.01486494764685631,-0.00813579186797142,0.0205929446965456,0.01583170890808105,0.06056660413742065,-0.04733681678771973,2,0.2878082692623138,-0.1383385211229324,0.1784189641475677,0.9306963086128235,-0.3602032065391541,-0.4863597452640533,-0.7960577011108398,-186.5547332763672,-8.052543640136719,77.04550170898438,0,2
1562613910.895784,220,0,309174.344115625,0.4911997541861037,-0.4251836789403592,0.5077928531184412,0.01396476291120052,0.002792270854115486,0.00318005564622581,0.01785445213317871,0.06622439622879028,-0.03349161148071289,2,0.2878110706806183,-0.1384052932262421,0.1786386966705322,0.9306432604789734,-0.3604402840137482,-0.4862497746944427,-0.7960175275802612,-186.9199829101562,-8.979026794433594,74.80972290039062,0,2
1562613910.929387,221,0,309174.379089625,0.4912912987516428,-0.4252455398177745,0.5070946478030937,-0.01572849042713642,-0.01751703023910522,0.01602633856236935,0.01781505346298218,0.06213438510894775,-0.03270089626312256,2,0.287507027387619,-0.1385191679000854,0.1787623912096024,0.9306965470314026,-0.3606294989585876,-0.4856395721435547,-0.7963042855262756,-184.9342193603516,-6.168849945068359,81.92724609375,0,2
1562613910.961899,222,0,309174.414031625,0.4914343993894458,-0.4250930978587078,0.5064975956532823,0.02953017875552177,0.02072331309318542,-0.00735922995954752,0.01712650060653687,0.06683021783828735,-0.03442621231079102,2,0.2872331440448761,-0.1385116875171661,0.1789278239011765,0.9307504296302795,-0.3606276214122772,-0.4851175546646118,-0.7966232895851135,-185.0743103027344,-4.579872131347656,85.74490356445312,0,2
1562613911.006154,223,0,309174.449004625,0.491355251090776,-0.424405188343116,0.506552163331832,-0.007904591038823128,0.01585950143635273,-0.005870107561349869,0.01909974217414856,0.07115042209625244,-0.02371931076049805,2,0.2871907949447632,-0.1381952315568924,0.178982749581337,0.9308000206947327,-0.3600686490535736,-0.4851652681827545,-0.7968470454216003,-185.1068878173828,-3.263481140136719,87.78643798828125,0,2
1562613911.027864,224,0,309174.483916625,0.4919968011869478,-0.4250000257146578,0.5050377928578578,-0.005421804264187813,-0.0008818041533231735,0.03397835046052933,0.01490280032157898,0.06007346510887146,-0.04130041599273682,2,0.2866030931472778,-0.1385931819677353,0.17939093708992,0.9308434724807739,-0.3608451187610626,-0.4838405251502991,-0.797301173210144,-185.0073394775391,-3.960769653320312,87.35116577148438,0,2
1562613911.076321,225,0,309174.518890625,0.4923277207661524,-0.4244067288202886,0.5053996628632158,0.001329902093857527,0.02252331748604774,-0.01561966817826033,0.006773233413696289,0.06681448221206665,-0.02925264835357666,2,0.2867365479469299,-0.1382186561822891,0.179583415389061,0.9308208823204041,-0.3602998852729797,-0.4841571748256683,-0.7973555326461792,-181.8751525878906,-2.891536712646484,90.32510375976562,0,2
1562613911.093195,226,0,309174.553802625,0.491995505182353,-0.4242025843275158,0.5044574806981779,-0.03025040961802006,-0.01251191459596157,0.02169770747423172,0.01332885026931763,0.05474308133125305,-0.04017668962478638,2,0.2862688004970551,-0.1383038908243179,0.1795792132616043,0.9309529662132263,-0.3603246808052063,-0.4833325743675232,-0.797844409942627,-181.4039001464844,-3.014945983886719,89.08367919921875,0,2
1562613911.12718,227,0,309174.588775625,0.4921261635374658,-0.4235110974360511,0.5049476888199482,0.02272329106926918,0.02430702187120914,-0.01818280108273029,0.009291261434555054,0.06710493564605713,-0.03576439619064331,2,0.286437600851059,-0.1378943175077438,0.1796760410070419,0.9309431910514832,-0.3596754968166351,-0.4837616682052612,-0.797877311706543,-181.6887359619141,-4.391078948974609,87.161376953125,0,2
1562613911.159144,228,0,309174.623717625,0.4917062025603192,-0.4225944941418464,0.5045286544037334,-0.02153696492314339,0.01285471022129059,0.007193250581622124,0.01656132936477661,0.06229746341705322,-0.03015315532684326,2,0.2861366271972656,-0.137586697936058,0.1796655207872391,0.9310832619667053,-0.3590271174907684,-0.4833948910236359,-0.7983914613723755,-180.4941101074219,-4.853897094726562,87.46633911132812,0,2
1562613911.193118,229,0,309174.658691625,0.4917717952397329,-0.4219522978465832,0.5041117160402895,-0.004910166375339031,0.02273768559098244,-0.003350653219968081,0.01930427551269531,0.06147411465644836,-0.03068441152572632,2,0.2858946025371552,-0.1373369544744492,0.1798413097858429,0.931160569190979,-0.3585968315601349,-0.483029842376709,-0.7988056540489197,-181.1454467773438,-8.033393859863281,78.27560424804688,0,2
1562613911.236789,230,0,309174.693603625,0.4919004910155813,-0.4216392136514498,0.503230022007547,-0.00296385120600462,-0.004110047593712807,0.02673218958079815,0.01721414923667908,0.06512606143951416,-0.03537130355834961,2,0.2854759693145752,-0.137296736240387,0.1800587922334671,0.9312528371810913,-0.3585208654403687,-0.4822576344013214,-0.7993061542510986,-179.9898223876953,-8.771446228027344,80.11593627929688,0,2
1562613911.25896,231,0,309174.728576625,0.4926432614831068,-0.4217480666747453,0.502799436134858,-0.00442848727107048,0.01246261037886143,0.007986013777554035,0.008948266506195068,0.06483983993530273,-0.02713358402252197,2,0.285341739654541,-0.1373019814491272,0.1804441958665848,0.9312186241149902,-0.358692854642868,-0.481880396604538,-0.7994565367698669,-180.4048461914062,-10.39810943603516,78.764404296875,0,2
1562613911.291677,232,0,309174.728576625,0.4926432614831068,-0.4217480666747453,0.502799436134858,-0.00442848727107048,0.01246261037886143,0.007986013777554035,0.008948266506195068,0.06483983993530273,-0.02713358402252197,2,0.285341739654541,-0.1373019814491272,0.1804441958665848,0.9312186241149902,-0.358692854642868,-0.481880396604538,-0.7994565367698669,-180.4048461914062,-10.39810943603516,78.764404296875,0,2
1562613911.324831,233,0,309174.763518625,0.4927774684320434,-0.42158189082389,0.5017764083781286,-0.00545489601790905,0.007674653083086014,0.01234683394432068,0.006774008274078369,0.06209570169448853,-0.03168988227844238,2,0.2848725616931915,-0.1373494267463684,0.1806612461805344,0.9313132166862488,-0.3587615489959717,-0.4809837341308594,-0.799965500831604,-179.150146484375,-6.423778533935547,86.32736206054688,0,2
1562613911.3569,234,0,309174.798461625,0.4923862222652073,-0.4206712657175483,0.5015883430037442,-0.007754153106361628,0.01607197336852551,-0.01377216540277004,0.00934678316116333,0.06521120667457581,-0.03089892864227295,2,0.2846782803535461,-0.1370075196027756,0.1806327402591705,0.9314284920692444,-0.3580698370933533,-0.4808188378810883,-0.800374448299408,-182.0147705078125,-10.13547515869141,77.65594482421875,0,2
1562613911.398933,235,0,309174.833404625,0.4927229625364138,-0.4207451768977543,0.500715171186224,-0.009456638246774673,-0.003366759046912193,0.02212518639862537,0.01024892926216125,0.05650982260704041,-0.03431087732315063,2,0.2843123972415924,-0.1371168047189713,0.1808905154466629,0.9314741492271423,-0.3583003580570221,-0.480053037405014,-0.8007308840751648,-180.2373046875,-9.11785888671875,80.9801025390625,0,2
1562613911.422757,236,0,309174.868377625,0.4925417859391796,-0.4202369251457342,0.5006661240484215,0.0109969275072217,0.01844835840165615,-0.01785806193947792,0.008233577013015747,0.05429995059967041,-0.03708255290985107,2,0.2842317819595337,-0.1369127333164215,0.1808846294879913,0.9315299391746521,-0.3579029440879822,-0.4800100028514862,-0.800934374332428,-180.4710998535156,-6.443290710449219,84.51138305664062,0,2
1562613911.480428,237,0,309174.903289625,0.4920078041799733,-0.4190009757071763,0.5005921947595456,-0.03151508420705795,0.03234512731432915,-0.009808104485273361,0.01841083168983459,0.05463191866874695,-0.02804768085479736,2,0.2840500473976135,-0.1364232748746872,0.1808209121227264,0.9316694736480713,-0.3569271862506866,-0.4799451529979706,-0.8014085292816162,-181.7411193847656,-6.43212890625,82.73779296875,0,2
1562613911.488553,238,0,309174.938262625,0.4918726737569414,-0.4188006792189951,0.4994522744815083,-0.01333380583673716,-0.004547039046883583,0.02451972477138042,0.02010530233383179,0.04928150773048401,-0.04511529207229614,2,0.283505916595459,-0.1365091055631638,0.1809313297271729,0.9318012595176697,-0.3569889068603516,-0.4789447784423828,-0.8019793033599854,-180.9744567871094,-5.825565338134766,84.81393432617188,0,2
1562613911.522547,239,0,309174.973205625,0.4923708215290463,-0.4186869556349699,0.5003263273849266,0.03228019550442696,0.02098844572901726,-0.01449104025959969,0.01741728186607361,0.06341627240180969,-0.03387653827667236,2,0.283925861120224,-0.1362627744674683,0.1810684204101562,0.9316827654838562,-0.3567273616790771,-0.4797118902206421,-0.8016371130943298,-180.4285888671875,-2.597743988037109,91.32705688476562,0,2
1562613911.561979,240,0,309175.008178625,0.4917843700071952,-0.418053283260393,0.50055963451778,-0.01461076177656651,-0.007308068685233593,-0.009098721668124199,0.01864826679229736,0.06589466333389282,-0.02220183610916138,2,0.2839343547821045,-0.1360180824995041,0.1808555275201797,0.9317573308944702,-0.3561738729476929,-0.4799166023731232,-0.801760733127594,-181.6075897216797,-1.905673980712891,92.37713623046875,0,2
1562613911.588441,241,0,309175.043090625,0.4910180694259808,-0.4177407847966481,0.5007347201843469,0.03447791188955307,-0.002658428624272346,-0.02401259541511536,0.01804286241531372,0.06112006306648254,-0.0392877459526062,2,0.2839334309101105,-0.135956734418869,0.1805206537246704,0.931831419467926,-0.3558892011642456,-0.480070173740387,-0.8017951250076294,-182.6311798095703,-1.291538238525391,91.48580932617188,0,2
1562613911.636051,242,0,309175.078063625,0.4908405104565331,-0.4176121995605098,0.5024871964429494,0.04754675924777985,-0.002535361796617508,-0.02898161485791206,0.01434725522994995,0.0673583447933197,-0.01802527904510498,2,0.2847042977809906,-0.1356765478849411,0.1802338063716888,0.9316926002502441,-0.3554443418979645,-0.4816067814826965,-0.8010706901550293,-175.9007568359375,7.111042022705078,112.2431030273438,0,2
1562613911.654397,243,0,309175.112975625,0.4903526194246332,-0.4179914387403214,0.5021837601281207,-0.01678216084837914,-0.02900238893926144,0.00478380685672164,0.01262038946151733,0.06062233448028564,-0.02159714698791504,2,0.2845677435398102,-0.1359651535749435,0.1799910664558411,0.9317392110824585,-0.3558074235916138,-0.4813408255577087,-0.8010693788528442,-176.5678558349609,4.57520866394043,106.4861755371094,0,2
1562613911.686334,244,0,309175.147948625,0.4908650074486234,-0.4192297395475573,0.5020005657510722,0.0429697073996067,-0.003455100581049919,-0.003910921514034271,0.004021108150482178,0.05676904320716858,-0.03697299957275391,2,0.284631073474884,-0.1364947557449341,0.1800768375396729,0.9316258430480957,-0.3568350076675415,-0.4811802506446838,-0.8007086515426636,-175.7733306884766,2.832204818725586,103.1776123046875,0,2
1562613911.720151,245,0,309175.182891625,0.4904078672515103,-0.4184090248735688,0.503700936340575,0.01813371479511261,0.02214251086115837,-0.03583401441574097,0.00748521089553833,0.06293016672134399,-0.01252752542495728,2,0.2852967977523804,-0.1359393298625946,0.1797645390033722,0.931563675403595,-0.3558447659015656,-0.4826701283454895,-0.8002524971961975,-179.3390350341797,-1.661727905273438,92.75405883789062,0,2
1562613911.752241,246,0,309175.217864625,0.489453569946685,-0.4182281203337862,0.5019470178968868,-0.04362057521939278,-0.009425547905266285,0.01477678306400776,0.01908239722251892,0.0505577027797699,-0.04098659753799438,2,0.284420520067215,-0.1362364292144775,0.1795686036348343,0.9318259954452515,-0.35604327917099,-0.4811333119869232,-0.8010892271995544,-178.9237213134766,5.363704681396484,107.2568359375,0,2
1562613911.795349,247,0,309175.252776625,0.4902332198995646,-0.4183467582595137,0.5034131545138815,0.07041140645742416,0.02905811183154583,-0.01846687495708466,0.01380911469459534,0.05994671583175659,-0.03596848249435425,2,0.2851489186286926,-0.1359755396842957,0.1797286570072174,0.9316105246543884,-0.3558513522148132,-0.4824180603027344,-0.800401508808136,-182.7447814941406,6.813423156738281,108.3720092773438,0,2
1562613911.818133,248,0,309175.287765875,0.4897953823766364,-0.4184005599731165,0.5032144459834779,-0.01551076769828796,-0.02727453038096428,0.01079615950584412,0.01579856872558594,0.04762637615203857,-0.02968961000442505,2,0.2850338816642761,-0.1360908299684525,0.179542288184166,0.9316648840904236,-0.3559333682060242,-0.4822439849376678,-0.8004699349403381,-184.1349792480469,8.291963577270508,108.7076721191406,0,2
1562613911.852023,249,0,309175.322678875,0.4898471998040957,-0.4180843518206784,0.5037505086894773,0.02912260219454765,0.03029327653348446,-0.03548163175582886,0.0125713050365448,0.05377283692359924,-0.03086650371551514,2,0.2852520048618317,-0.1358611285686493,0.1795433908700943,0.9316314458847046,-0.3555752336978912,-0.4827135503292084,-0.8003460764884949,-188.827880859375,6.568826675415039,101.3764343261719,0,2
1562613911.883947,250,0,309175.322678875,0.4898471998040957,-0.4180843518206784,0.5037505086894773,0.02912260219454765,0.03029327653348446,-0.03548163175582886,0.0125713050365448,0.05377283692359924,-0.03086650371551514,2,0.2852520048618317,-0.1358611285686493,0.1795433908700943,0.9316314458847046,-0.3555752336978912,-0.4827135503292084,-0.8003460764884949,-188.827880859375,6.568826675415039,101.3764343261719,0,2
1562613911.917963,251,0,309175.357651875,0.4880329967873642,-0.4161220464951648,0.5044191297577743,-0.0215379111468792,0.02649063989520073,-0.04440344870090485,0.03274849057197571,0.06143921613693237,-0.01368045806884766,2,0.2852563858032227,-0.1351122856140137,0.1788932979106903,0.9318640828132629,-0.3538734912872314,-0.4832989871501923,-0.8007469177246094,-185.1783142089844,4.22166633605957,101.0260314941406,0,2
1562613911.961421,252,0,309175.392593875,0.4873585795452863,-0.4160368891201263,0.5034443375573504,-0.007430067285895348,-0.03245610743761063,0.01791215874254704,0.03512898087501526,0.04996436834335327,-0.04529321193695068,2,0.2847610712051392,-0.1353045701980591,0.1787144839763641,0.9320219755172729,-0.3539955317974091,-0.4824453890323639,-0.8012076020240784,-182.3634033203125,8.258100509643555,111.1913452148438,0,2
1562613911.983944,253,0,309175.427566875,0.489126422584587,-0.417711305378429,0.5049673185161119,0.05872162058949471,-0.004556743428111076,0.01189196296036243,0.01386469602584839,0.05186432600021362,-0.02762508392333984,2,0.2857211530208588,-0.135620042681694,0.1791063398122787,0.9316070079803467,-0.3550381064414978,-0.4837788343429565,-0.7999412417411804,-180.8454437255859,6.898035049438477,109.1399536132812,0,2
1562613912.035637,254,0,309175.462479875,0.488868380543228,-0.4177176207779044,0.5050488016042012,-0.03351167589426041,-0.02192416787147522,0.002862909343093634,0.005980312824249268,0.05663549900054932,-0.0148003101348877,2,0.2857411801815033,-0.1356484591960907,0.1789748966693878,0.9316219091415405,-0.3550271391868591,-0.4838501513004303,-0.7999029755592346,-177.8797760009766,8.97608757019043,113.4812927246094,0,2
1562613912.049831,255,0,309175.497452875,0.4881516715686883,-0.4176717895667871,0.5038760135594524,-0.02044891007244587,-0.01308617740869522,-0.008420276455581188,0.00695192813873291,0.05737736821174622,-0.04780399799346924,2,0.2851567268371582,-0.1358931809663773,0.1787964105606079,0.9317996501922607,-0.3552204370498657,-0.4828234612941742,-0.8004373908042908,-177.0416870117188,3.23826789855957,104.1961975097656,0,2
1562613912.08172,256,0,309175.532394875,0.4881540478561762,-0.4178327996656047,0.5049196568451356,0.03543710336089134,-0.01061679236590862,-0.00886454526335001,0.009790390729904175,0.05653741955757141,-0.03889286518096924,2,0.2856444120407104,-0.1358221918344498,0.1786420792341232,0.9316902756690979,-0.3551446497440338,-0.4837371110916138,-0.7999191880226135,-172.9945678710938,-2.978462219238281,93.992431640625,0,2
1562613912.120359,257,0,309175.567337875,0.4881041370158948,-0.4182245825807582,0.5043005233649788,-0.02480690740048885,-0.01934194378554821,0.01636123657226562,0.01356765627861023,0.04256707429885864,-0.02731436491012573,2,0.2853953838348389,-0.136098250746727,0.1786415278911591,0.9317262768745422,-0.3555795550346375,-0.4831951558589935,-0.8000534772872925,-169.6078338623047,-0.4222869873046875,104.3580017089844,0,2
1562613912.148216,258,0,309175.602280875,0.4884435928120009,-0.418669740104096,0.5043562849638323,0.01154390536248684,0.003953691571950912,-0.009213675744831562,0.01588162779808044,0.04803282022476196,-0.01970028877258301,2,0.2854835391044617,-0.1362493932247162,0.1787290424108505,0.9316604137420654,-0.3559247255325317,-0.4832439720630646,-0.799870491027832,-167.4529266357422,-0.2250518798828125,107.1943664550781,0,2
1562613912.195053,259,0,309175.637253875,0.4882084194668228,-0.4191961468282432,0.5025064538628993,-0.06941021978855133,-0.04147093743085861,0.04103107377886772,0.01468336582183838,0.02785575389862061,-0.03837424516677856,2,0.2846759259700775,-0.1367864459753036,0.178779661655426,0.9318190813064575,-0.3567089736461639,-0.481623649597168,-0.8004981875419617,-169.5998229980469,-6.871402740478516,94.82244873046875,0,2
1562613912.214364,260,0,309175.672165875,0.4894922130779498,-0.4204109185964194,0.5029736555400085,0.07357679307460785,0.0136842243373394,-0.008889000862836838,0.007126808166503906,0.04318895936012268,-0.04104399681091309,2,0.2850843071937561,-0.1371041834354401,0.1791451871395111,0.9315773248672485,-0.3575892746448517,-0.4820330440998077,-0.7998587489128113,-170.5544128417969,-10.40836334228516,88.41650390625,0,2
1562613912.247477,261,0,309175.707138875,0.4883689456521252,-0.4192049403724528,0.5034152864390429,-0.05310086160898209,-0.0004651919007301331,-0.01575195789337158,0.02084437012672424,0.04446136951446533,-0.005834341049194336,2,0.2850996851921082,-0.1366407871246338,0.1787375956773758,0.9317190647125244,-0.3565377295017242,-0.4824199378490448,-0.8000949025154114,-169.6428833007812,-11.47207260131836,88.68826293945312,0,2
1562613912.279878,262,0,309175.742081875,0.4884370017909374,-0.4198117859268344,0.5015118225100863,-0.01911283656954765,-0.01507570967078209,0.02665022015571594,0.02191820740699768,0.03914406895637512,-0.03701233863830566,2,0.2842956483364105,-0.1371796280145645,0.1789251267910004,0.931849479675293,-0.3573968112468719,-0.4807517528533936,-0.800715446472168,-169.6277770996094,-13.05533599853516,86.17636108398438,0,2
1562613912.313363,263,0,309175.777023875,0.4887720580120596,-0.4201785049398604,0.5017966197534088,0.02665324136614799,-0.01013833470642567,-0.0005601367447525263,0.01077324151992798,0.04352927207946777,-0.03685683012008667,2,0.2844805717468262,-0.1372630596160889,0.178992822766304,0.9317677617073059,-0.3576345443725586,-0.4810014367103577,-0.8004593253135681,-165.5006713867188,-10.77225494384766,96.77322387695312,0,2
1562613912.355138,264,0,309175.811966875,0.4890151181552251,-0.4202935782997674,0.502550096295749,0.01823483593761921,0.00460447184741497,-0.01239178702235222,0.01096150279045105,0.05420053005218506,-0.01565372943878174,2,0.2848491370677948,-0.1371767520904541,0.1789936721324921,0.9316676259040833,-0.3575786650180817,-0.4816618859767914,-0.800087034702301,-166.9243316650391,-12.3262825012207,93.64663696289062,0,2
1562613912.379225,265,0,309175.846939875,0.4886779321196866,-0.4206663070707293,0.5008042846655576,-0.05868761241436005,-0.03881519660353661,0.03267009556293488,0.01012331247329712,0.03191575407981873,-0.03691613674163818,2,0.284067839384079,-0.1376423537731171,0.1790060698986053,0.9318352341651917,-0.358219712972641,-0.480131208896637,-0.8007200956344604,-168.3894195556641,-16.01120758056641,86.1585693359375,0,2
1562613912.411759,266,0,309175.881851875,0.4895713143028682,-0.4210161023314937,0.5016782804817994,0.08306150138378143,0.03256119787693024,-0.02472947537899017,0.003991127014160156,0.04379180073738098,-0.03600645065307617,2,0.2845568358898163,-0.1375561058521271,0.1792610883712769,0.9316497445106506,-0.3583281636238098,-0.4808976948261261,-0.8002114295959473,-164.7290649414062,-15.11240768432617,92.33029174804688,0,2
1562613912.445965,267,0,309175.881851875,0.4895713143028682,-0.4210161023314937,0.5016782804817994,0.08306150138378143,0.03256119787693024,-0.02472947537899017,0.003991127014160156,0.04379180073738098,-0.03600645065307617,2,0.2845568358898163,-0.1375561058521271,0.1792610883712769,0.9316497445106506,-0.3583281636238098,-0.4808976948261261,-0.8002114295959473,-164.7290649414062,-15.11240768432617,92.33029174804688,0,2
1562613912.477134,268,0,309175.916824875,0.4885006361802121,-0.4195940196425561,0.5026461396389532,-0.03378001227974892,0.007523650303483009,-0.01874157786369324,0.01991894841194153,0.05188924074172974,0.0035819411277771,2,0.2847947776317596,-0.1369107067584991,0.1788413822650909,0.9317528009414673,-0.3570000529289246,-0.4817460775375366,-0.8002947568893433,-163.5519104003906,-16.87004089355469,90.213134765625,0,2
1562613912.521723,269,0,309175.951767875,0.488474968157995,-0.4202325392036409,0.501172261263552,-0.005855506751686335,-0.01983609795570374,0.02564425952732563,0.02352792024612427,0.04011273384094238,-0.02457797527313232,2,0.2841818928718567,-0.1374176889657974,0.1789262443780899,0.9318490028381348,-0.3578002750873566,-0.4804539680480957,-0.8007140755653381,-159.6590576171875,-16.4425163269043,91.9664306640625,0,2
1562613912.543187,270,0,309175.986740875,0.4902505012859445,-0.4218641618717568,0.5020081047261247,0.04166064783930779,-0.01980905048549175,0.02329335734248161,0.001828640699386597,0.04081630706787109,-0.01240831613540649,2,0.2848291099071503,-0.1378082484006882,0.1794146001338959,0.931499719619751,-0.3589417040348053,-0.4811868369579315,-0.7997625470161438,-159.4458923339844,-22.27273941040039,82.251708984375,0,2
1562613912.596476,271,0,309176.021652875,0.4904063603995187,-0.4220858199588396,0.5022520546594319,-0.00337827461771667,-0.01565917395055294,-0.002453329041600227,-0.0006054937839508057,0.05079606175422668,0.004647195339202881,2,0.2849702835083008,-0.1378550827503204,0.1794244199991226,0.9314476847648621,-0.3590708374977112,-0.4814006984233856,-0.7995758056640625,-157.30078125,-24.19963455200195,78.68328857421875,0,2
1562613912.608814,272,0,309176.056625875,0.4901589326909768,-0.4229001471658799,0.5013061443783025,-0.03949378430843353,-0.03983660414814949,0.009512373246252537,0.01161646842956543,0.03751462697982788,-0.01566201448440552,2,0.284597635269165,-0.1384021788835526,0.1793142855167389,0.9315016865730286,-0.3599085807800293,-0.4805713891983032,-0.7996980547904968,-153.3558959960938,-23.47974395751953,84.65106201171875,0,2
1562613912.642975,273,0,309176.091537875,0.4910341605881238,-0.4242633116724374,0.5018543574923513,0.05639047920703888,-0.02364587783813477,0.01008895877748728,0.01017284393310547,0.02128756046295166,-0.02280324697494507,2,0.2850289344787598,-0.1388354450464249,0.1794574558734894,0.9312776923179626,-0.3608898520469666,-0.4810520708560944,-0.7989664673805237,-154.6952667236328,-24.52177047729492,80.86257934570312,0,2
1562613912.676815,274,0,309176.126511875,0.4909979646954088,-0.4240258642994921,0.5027834471220113,-0.01066084578633308,0.01331007666885853,-0.01904191635549068,0.01509344577789307,0.03032740950584412,0.001334190368652344,2,0.2854259014129639,-0.1385995596647263,0.1793551594018936,0.931210994720459,-0.3605160713195801,-0.4818663895130157,-0.7986444234848022,-157.4590759277344,-26.66986083984375,73.61651611328125,0,2
1562613912.7087,275,0,309176.161453875,0.4899654921951555,-0.4234639629865032,0.5019996513091414,-0.02924031764268875,-0.0008610319346189499,-0.006662818137556314,0.02291697263717651,0.0232309103012085,-0.02155613899230957,2,0.2849489748477936,-0.1385951042175293,0.1790550649166107,0.9314154386520386,-0.360222339630127,-0.4811794459819794,-0.7991909384727478,-157.607177734375,-27.07258224487305,72.00711059570312,0,2
1562613912.755985,276,0,309176.196426875,0.489673969863663,-0.4225880820518081,0.5033167433847221,0.06173468008637428,0.01990840956568718,-0.02307551540434361,0.02964577078819275,0.03663942217826843,-0.008437991142272949,2,0.2854471206665039,-0.1380442082881927,0.1788754612207413,0.9313792586326599,-0.3592619895935059,-0.4823336005210876,-0.7989274859428406,-158.2733764648438,-26.28656387329102,72.34140014648438,0,2
1562613912.774739,277,0,309176.231338875,0.4901535580576012,-0.4226928441147573,0.5032229069096412,-0.04781745374202728,-0.01641954109072685,0.04183955863118172,0.02782571315765381,0.03226959705352783,0.003848850727081299,2,0.2854471206665039,-0.138037696480751,0.1790958642959595,0.9313377737998962,-0.359364241361618,-0.4822514057159424,-0.7989310622215271,-158.7354125976562,-26.69984436035156,71.10723876953125,0,2
1562613912.806691,278,0,309176.266312875,0.4920458612147116,-0.4244831909589599,0.5023578942672974,0.06877583265304565,-0.007414002902805805,0.03842973336577415,0.002802759408950806,0.04461795091629028,-0.01994538307189941,2,0.2853469252586365,-0.1387227773666382,0.1798324584960938,0.931124746799469,-0.3609656989574432,-0.4814934432506561,-0.79866623878479,-161.0821380615234,-25.69555282592773,70.25198364257812,0,2
1562613912.84052,279,0,309176.3012077917,0.4923164362022329,-0.4238134205399012,0.5033269055068799,-0.02535962499678135,0.02308939211070538,-0.01067748572677374,-0.003204822540283203,0.06007084250450134,0.01714754104614258,2,0.2857441604137421,-0.1382359713315964,0.1799295395612717,0.9310566186904907,-0.3602386713027954,-0.4823425114154816,-0.7984821796417236,-158.4002838134766,-22.96089172363281,78.03280639648438,0,2
1562613912.872541,280,0,309176.3361807917,0.4931968928549825,-0.4255563699427901,0.5005992996959149,-0.02764408476650715,-0.0310225784778595,0.06565190106630325,-0.008868008852005005,0.03576508164405823,-0.02397263050079346,2,0.2847273051738739,-0.1393060088157654,0.1804416179656982,0.9311094880104065,-0.3621715903282166,-0.4799513816833496,-0.7990484237670898,-155.8643951416016,-21.24172592163086,82.384033203125,0,2
1562613912.916178,281,0,309176.3711227917,0.4942594623078024,-0.4261269247932631,0.5014524309453176,0.05531060695648193,0.00677565298974514,-0.01723064109683037,-0.01750767230987549,0.04989621043205261,-0.007875323295593262,2,0.2852390110492706,-0.1392998248338699,0.180745005607605,0.9308950304985046,-0.3624580800533295,-0.4806996583938599,-0.7984685301780701,-156.0915374755859,-27.69132614135742,69.7911376953125,0,2
1562613912.939009,282,0,309176.4060967917,0.4935261048876616,-0.4261237087229611,0.5007611470314638,-0.0696159303188324,-0.01450920570641756,-0.003789616283029318,0.001029402017593384,0.02632468938827515,0.00269770622253418,2,0.2848747074604034,-0.1395004242658615,0.1804932355880737,0.9310253262519836,-0.3625927567481995,-0.4800933599472046,-0.7987720370292664,-156.1683349609375,-29.57144927978516,66.394287109375,0,2
1562613912.972867,283,0,309176.4410087917,0.4928264191587437,-0.4260272864548808,0.4995980042233503,0.0212868582457304,0.006926121190190315,-0.01630039885640144,0.011269211769104,0.01036438345909119,-0.02709305286407471,2,0.2842904925346375,-0.1397190392017365,0.1803310811519623,0.9312025904655457,-0.3627462983131409,-0.4790727198123932,-0.7993150353431702,-153.0213012695312,-25.37298965454102,75.93215942382812,0,2
1562613913.00464,284,0,309176.4410087917,0.4928264191587437,-0.4260272864548808,0.4995980042233503,0.0212868582457304,0.006926121190190315,-0.01630039885640144,0.011269211769104,0.01036438345909119,-0.02709305286407471,2,0.2842904925346375,-0.1397190392017365,0.1803310811519623,0.9312025904655457,-0.3627462983131409,-0.4790727198123932,-0.7993150353431702,-153.0213012695312,-25.37298965454102,75.93215942382812,0,2
1562613913.038623,285,0,309176.4759817917,0.4916937248536095,-0.4241186479261175,0.5014527421446457,0.01488298177719116,0.04054243117570877,-0.05769328027963638,0.0319572389125824,0.02458241581916809,0.007942676544189453,2,0.2848797738552094,-0.1387305408716202,0.1798367500305176,0.9312658905982971,-0.3608537614345551,-0.4806999266147614,-0.7991946935653687,-153.9524841308594,-27.72621917724609,70.298828125,0,2
