loggingTime,loggingSample,identifierForVendor,motionTimestamp_sinceReboot,motionYaw,motionRoll,motionPitch,motionRotationRateX,motionRotationRateY,motionRotationRateZ,motionUserAccelerationX,motionUserAccelerationY,motionUserAccelerationZ,motionAttitudeReferenceFrame,motionQuaternionX,motionQuaternionY,motionQuaternionZ,motionQuaternionW,motionGravityX,motionGravityY,motionGravityZ,motionMagneticFieldX,motionMagneticFieldY,motionMagneticFieldZ,motionMagneticFieldCalibrationAccuracy,label
1562614141.92427,1,0,309405.391820375,0.3717202993983968,0.01396332181478006,0.6517548281233173,0.1111871674656868,-0.3413394689559937,-0.006336556747555733,0.01096232235431671,-0.01927721500396729,0.06668943166732788,2,0.3133966624736786,0.06565812230110168,0.17725870013237,0.9306185841560364,0.0111007671803236,-0.6065824627876282,-0.79494309425354,43.98445892333984,31.08551406860352,-10.36196899414062,0,2
1562614141.95125,2,0,309405.391820375,0.3717202993983968,0.01396332181478006,0.6517548281233173,0.1111871674656868,-0.3413394689559937,-0.006336556747555733,0.01096232235431671,-0.01927721500396729,0.06668943166732788,2,0.3133966624736786,0.06565812230110168,0.17725870013237,0.9306185841560364,0.0111007671803236,-0.6065824627876282,-0.79494309425354,43.98445892333984,31.08551406860352,-10.36196899414062,0,2
1562614141.985254,3,0,309405.426763375,0.3654028185973278,0.001973595536130492,0.6545465177003367,0.0464509129524231,-0.4580464065074921,-0.1617171466350555,-0.0003778114914894104,-0.01369988918304443,0.01730656623840332,2,0.3159419894218445,0.0593242235481739,0.1723550260066986,0.931104302406311,0.001565699931234121,-0.6087995767593384,-0.7933225631713867,42.60062408447266,31.5446662902832,-12.80813598632812,0,2
1562614142.027891,4,0,309405.461736375,0.3627293343054976,-0.006843993723996474,0.6562711423240323,0.03596008569002151,-0.19053053855896,0.015301120467484,0.02721982449293137,0.03109610080718994,-0.01557791233062744,2,0.3175752460956573,0.05494344979524612,0.1696625202894211,0.9313117861747742,-0.005422268528491259,-0.6101668477058411,-0.7922543883323669,41.62335968017578,31.62430572509766,-13.94192504882812,0,2
1562614142.051132,5,0,309405.496646,0.3639251926421817,-0.01167653299520056,0.6541742405029031,-0.1019150242209435,-0.1584668159484863,0.0179490502923727,0.03099264204502106,0.004284322261810303,0.01886934041976929,2,0.3169767558574677,0.05270152911543846,0.1695183217525482,0.9316715002059937,-0.009265709668397903,-0.6085041761398315,-0.7934965491294861,40.87413787841797,31.53896713256836,-14.65609741210938,0,2
1562614142.083188,6,0,309405.531619,0.3656386446390686,-0.02031844370308093,0.6496059932922407,-0.1466826349496841,-0.2191258519887924,0.05054832994937897,0.03533730655908585,0.01875954866409302,0.01619398593902588,2,0.3155381083488464,0.04854682087898254,0.1690999865531921,0.9324613213539124,-0.0161789134144783,-0.6048727035522461,-0.7961578369140625,40.66123199462891,31.91831970214844,-15.81173706054688,0,2
1562614142.117229,7,0,309405.566531,0.368771924207024,-0.02719833832579228,0.6448619999209431,-0.1023455336689949,-0.1258371025323868,0.09966186434030533,0.03656686097383499,0.002625167369842529,-0.004494965076446533,2,0.313837856054306,0.04541175067424774,0.1696427762508392,0.9330942630767822,-0.02173376269638538,-0.6010881662368774,-0.7988871335983276,40.25405120849609,32.18058776855469,-17.57131958007812,0,2
1562614142.149171,8,0,309405.601504,0.3750598329664683,-0.03473644018418832,0.6446179313405581,0.04648926109075546,-0.1389485746622086,0.1642841249704361,0.02899143099784851,0.005557894706726074,0.00721430778503418,2,0.3142281770706177,0.04286080971360207,0.171401172876358,0.9327621459960938,-0.02776027470827103,-0.6008930802345276,-0.7988471984863281,40.29116058349609,32.27103424072266,-17.87124633789062,0,2
1562614142.198014,9,0,309405.636447,0.3808812468803568,-0.04327355210672066,0.6461245885764934,0.03159803152084351,-0.1556057780981064,0.1147166043519974,0.008376196026802063,0.005527257919311523,0.01425027847290039,2,0.3155428469181061,0.03993575274944305,0.1727127134799957,0.9322060346603394,-0.03453982248902321,-0.6020967364311218,-0.7976756691932678,39.69168853759766,31.16669082641602,-18.52981567382812,0,2
1562614142.215036,10,0,309405.67142,0.3861779367658452,-0.0540392151618901,0.6450465668413066,-0.06370668113231659,-0.2510058581829071,0.1319969296455383,0.001124873757362366,-0.004505753517150879,0.0304410457611084,2,0.3158737421035767,0.03565268218517303,0.1735267788171768,0.9321165084838867,-0.04316020011901855,-0.6012356281280518,-0.7979053258895874,39.07595062255859,30.570068359375,-19.63943481445312,0,2
1562614142.249009,11,0,309405.706332,0.3902144102975987,-0.06223316997239717,0.6379780817720961,-0.2940948009490967,-0.07013502717018127,0.1021349057555199,-0.02842726185917854,0.01434344053268433,0.03398275375366211,2,0.3132351040840149,0.03178847208619118,0.1744306534528732,0.9329776167869568,-0.04995974153280258,-0.5955724716186523,-0.8017465472221375,38.72606658935547,30.94430160522461,-20.70938110351562,0,2
1562614142.280837,12,0,309405.741305,0.3924903652023217,-0.06297992225250096,0.6204438492499348,-0.6056612730026245,0.04039702191948891,0.060686394572258,-0.008866734802722931,-0.01280838251113892,0.03421854972839355,2,0.3051081597805023,0.03008807823061943,0.176161453127861,0.9353988170623779,-0.05120788887143135,-0.5813963413238525,-0.8120074272155762,39.00144195556641,32.420654296875,-20.89120483398438,0,2
1562614142.314982,13,0,309405.776248,0.3908069709585792,-0.06153448182538854,0.5959750500465332,-0.7213400602340698,0.001353789120912552,-0.02435547299683094,-0.00347437709569931,-0.01735413074493408,0.001727640628814697,2,0.2935830652713776,0.02813147567212582,0.1766577810049057,0.9390471577644348,-0.05089390277862549,-0.5613159537315369,-0.82603520154953,39.05442047119141,33.62474060058594,-21.03225708007812,0,2
1562614142.352081,14,0,309405.811221,0.3867988038161125,-0.05683997036511751,0.5776389373192329,-0.4312178790569305,0.07197023183107376,-0.09195904433727264,0.02756668254733086,-0.002554893493652344,-0.01616549491882324,2,0.2846331298351288,0.02798796072602272,0.1762183904647827,0.941885232925415,-0.04759228974580765,-0.5460474491119385,-0.8364012837409973,38.82772064208984,36.5789794921875,-20.56362915039062,0,2
1562614142.380786,15,0,309405.846133,0.3828680235605461,-0.05245661930746616,0.5685621488996803,-0.154569536447525,0.06123946234583855,-0.05381160974502563,0.06107928603887558,-0.006957888603210449,-0.02955120801925659,2,0.2800388038158417,0.02863244712352753,0.1753464639186859,0.9434045553207397,-0.04418366774916649,-0.5384209752082825,-0.84151691198349,38.78009796142578,38.75743865966797,-19.78909301757812,0,2
1562614142.436962,16,0,309405.881106,0.3853558799797822,-0.05228613729985365,0.5712320055008602,0.1710313260555267,-0.001142380759119987,0.1355373412370682,0.07949121296405792,0.04866874217987061,0.003439426422119141,2,0.2812430262565613,0.02931603975594044,0.17643903195858,0.9428213834762573,-0.04396491497755051,-0.5406688451766968,-0.8400858640670776,38.18556976318359,38.98959732055664,-18.39517211914062,0,2
1562614142.446713,17,0,309405.916049,0.3972970356935989,-0.0634817208553994,0.5749679937234838,0.07282096892595291,-0.2045916616916656,0.3391178250312805,0.05478208512067795,0.01310068368911743,0.01557856798171997,2,0.2838301062583923,0.02609234862029552,0.1803289651870728,0.941403865814209,-0.05323870480060577,-0.5438079237937927,-0.8375193476676941,37.43820953369141,38.38430404663086,-18.14370727539062,0,2
1562614142.47861,18,0,309405.951022,0.4116346153310549,-0.08155324510277472,0.575485190899318,0.03753593936562538,-0.3323668539524078,0.3424175977706909,0.003623031079769135,0.002976536750793457,0.02532088756561279,2,0.2855564653873444,0.01968452148139477,0.1844776719808578,0.9402329325675964,-0.06834151595830917,-0.5442419052124023,-0.8361400365829468,36.03475189208984,37.14299774169922,-17.75802612304688,0,2
1562614142.517742,19,0,309405.985934,0.4246717256984446,-0.09918462283482712,0.5737700731241039,-0.05405216664075851,-0.2797199189662933,0.306933581829071,-0.02958180010318756,-0.008185148239135742,-0.00423121452331543,2,0.2862908542156219,0.01308187004178762,0.1881701052188873,0.9393925666809082,-0.08316473662853241,-0.5428022146224976,-0.8357328176498413,34.47339630126953,36.41300582885742,-18.08596801757812,0,2
1562614142.544665,20,0,309405.985934,0.4246717256984446,-0.09918462283482712,0.5737700731241039,-0.05405216664075851,-0.2797199189662933,0.306933581829071,-0.02958180010318756,-0.008185148239135742,-0.00423121452331543,2,0.2862908542156219,0.01308187004178762,0.1881701052188873,0.9393925666809082,-0.08316473662853241,-0.5428022146224976,-0.8357328176498413,34.47339630126953,36.41300582885742,-18.08596801757812,0,2
1562614142.592168,21,0,309406.020907,0.4339578414249672,-0.1092535894688901,0.569123651593457,-0.1395349055528641,-0.03369099274277687,0.1791850328445435,-0.04476437717676163,0.001374423503875732,0.02296316623687744,2,0.285026878118515,0.009171860292553902,0.1913458853960037,0.9391816854476929,-0.09184935688972473,-0.5388940572738647,-0.8373510837554932,33.19072723388672,36.2857666015625,-18.17086791992188,0,2
1562614142.610679,22,0,309406.05585,0.4353413326120555,-0.1078413284693179,0.5623855467333336,-0.1822321712970734,0.06432314217090607,-0.003367794677615166,-0.003704570233821869,-0.0330086350440979,0.007859110832214355,2,0.2817415595054626,0.009285001084208488,0.192569762468338,0.9399213790893555,-0.09105546772480011,-0.5332058668136597,-0.8410709500312805,32.43151092529297,36.81913375854492,-17.05844116210938,0,2
1562614142.644958,23,0,309406.090823,0.4335831961694869,-0.1032553510261571,0.5602488828632373,-0.01121082156896591,0.1580461859703064,-0.0711088627576828,0.006068326532840729,-0.01522797346115112,0.01248383522033691,2,0.2803112864494324,0.01095747761428356,0.1925042569637299,0.9403444528579712,-0.08731462806463242,-0.5313970446586609,-0.8426110148429871,32.07785797119141,37.46132278442383,-16.38388061523438,0,2
1562614142.676201,24,0,309406.125735,0.4276143164634918,-0.09502234024454391,0.5609728579163357,-0.009491913020610809,0.116032600402832,-0.1759955137968063,0.01542357355356216,-0.005733311176300049,0.01794880628585815,2,0.2798980176448822,0.01407241262495518,0.1908120512962341,0.9407709240913391,-0.08033799380064011,-0.5320101976394653,-0.8429181575775146,31.85875701904297,37.9958610534668,-14.72695922851562,0,2
1562614142.710283,25,0,309406.160708,0.4209265987912214,-0.08982098111755146,0.5593601422868985,-0.09244212508201599,0.02248305454850197,-0.1325761377811432,0.04795865714550018,0.01197189092636108,0.004852056503295898,2,0.2786995470523834,0.01541313156485558,0.1884731501340866,0.9415767788887024,-0.07602947205305099,-0.5306439399719238,-0.8441780209541321,31.76313018798828,39.66556549072266,-13.22659301757812,0,2
1562614142.757638,26,0,309406.195651,0.4196989978848348,-0.08790727353163481,0.5582281307943991,0.02932341955602169,0.04089005291461945,0.0383676216006279,0.05087948590517044,0.01685476303100586,-0.006749451160430908,2,0.2779988646507263,0.01602318696677685,0.1882176399230957,0.9418247938156128,-0.0744665116071701,-0.5296841263771057,-0.8449198007583618,31.62827301025391,40.68663787841797,-11.73733520507812,0,2
1562614142.776523,27,0,309406.230624,0.4230027944794752,-0.08916222403674126,0.5621682482287297,0.1342153996229172,0.0008582640439271927,0.07993712276220322,0.03567185997962952,0.0001475811004638672,-0.002035081386566162,2,0.2799351811408997,0.01631239242851734,0.1894019991159439,0.9410085678100586,-0.07534036040306091,-0.5330219864845276,-0.8427404165267944,30.86138153076172,40.47015380859375,-9.973907470703125,0,2
1562614142.808133,28,0,309406.265536,0.428557558990774,-0.09218350359374471,0.5656630709238665,0.1113472282886505,0.001428738236427307,0.1522390842437744,0.004739284515380859,0.005989491939544678,0.001729667186737061,2,0.2818120718002319,0.01604748889803886,0.191412940621376,0.9400454759597778,-0.0777142196893692,-0.5359756946563721,-0.840648889541626,30.33634185791016,40.40665435791016,-8.969757080078125,0,2
1562614142.842102,29,0,309406.300509,0.4347516692879039,-0.09366231204455219,0.5684862397607032,0.07194821536540985,0.0630493238568306,0.1324076354503632,-0.008623190224170685,-0.004610955715179443,0.01644372940063477,2,0.2832225263118744,0.01653557457029819,0.1939679831266403,0.9390888810157776,-0.07881545275449753,-0.5383570194244385,-0.8390231728553772,29.52596282958984,40.21725463867188,-7.372283935546875,0,2
1562614142.873947,30,0,309406.335422,0.4385322926250934,-0.09424002184118145,0.5678529075704892,-0.04046595096588135,0.01957436837255955,0.05670074000954628,-0.005877897143363953,-0.01808512210845947,0.02265822887420654,2,0.2829518020153046,0.01672962680459023,0.195694237947464,0.9388089776039124,-0.07933222502470016,-0.5378231406211853,-0.8393167853355408,29.14318084716797,40.3989143371582,-6.002288818359375,0,2
1562614142.919179,31,0,309406.370395,0.4379102642908556,-0.09430314043548307,0.5658052043224395,-0.07056739181280136,-0.0212373249232769,-0.03484420478343964,-0.003752723336219788,0.002218842506408691,0.02443599700927734,2,0.2820076644420624,0.01638556271791458,0.1955006867647171,0.9391392469406128,-0.07948873192071915,-0.5360957384109497,-0.8404063582420349,28.33621978759766,41.20442199707031,-4.421722412109375,0,2
1562614142.94037,32,0,309406.405337,0.4351681060670792,-0.09309513262398918,0.5611030413206494,-0.1823689192533493,0.01544033363461494,-0.05097733438014984,0.01287455856800079,-0.01143652200698853,-0.0002010464668273926,2,0.2797163128852844,0.01604960113763809,0.1946267336606979,0.9400114417076111,-0.07870692759752274,-0.532120406627655,-0.8430023789405823,27.86510467529297,41.81832122802734,-3.99945068359375,0,2
1562614142.997668,33,0,309406.440311,0.4338333522144244,-0.08958377564281716,0.5572456803610358,-0.04641681537032127,0.109961025416851,-0.03107067756354809,0.01680685579776764,0.007047832012176514,0.01134312152862549,2,0.2775825262069702,0.01709163561463356,0.1946856528520584,0.9406132102012634,-0.0759294331073761,-0.5288505554199219,-0.8453116416931152,27.50395965576172,42.87332534790039,-2.75604248046875,0,2
1562614143.006099,34,0,309406.475223,0.4305876823317788,-0.08392669943175662,0.5564977241435911,-0.0653100460767746,0.1060322970151901,-0.08286754041910172,0.03322897851467133,-0.00814509391784668,0.01363444328308105,2,0.2767123579978943,0.01922154612839222,0.1939800530672073,0.9409742951393127,-0.07117939740419388,-0.5282156467437744,-0.846121609210968,27.45520782470703,43.68927764892578,-1.102142333984375,0,2
1562614143.039831,35,0,309406.5102099167,0.4281195041753119,-0.07724668539150363,0.5522454696240082,-0.1393603682518005,0.1977650374174118,-0.0424993559718132,0.02049203962087631,0.004972994327545166,0.01937860250473022,2,0.27409827709198,0.02156755141913891,0.1939425468444824,0.9416959881782532,-0.06569848209619522,-0.5246002078056335,-0.8488099575042725,27.26444244384766,44.62569046020508,0.9287109375,0,2
1562614143.078745,36,0,309406.5451519167,0.4262473140965489,-0.0695233349212029,0.5474521982175135,-0.1435417532920837,0.1685629040002823,-0.02493764460086823,0.02883905544877052,-0.007252752780914307,0.01743519306182861,2,0.2711224853992462,0.02443833462893963,0.1943339556455612,0.9424062967300415,-0.05931492894887924,-0.5205134749412537,-0.851790726184845,27.35150909423828,45.47727203369141,2.932647705078125,0,2
1562614143.105876,37,0,309406.5451519167,0.4262473140965489,-0.0695233349212029,0.5474521982175135,-0.1435417532920837,0.1685629040002823,-0.02493764460086823,0.02883905544877052,-0.007252752780914307,0.01743519306182861,2,0.2711224853992462,0.02443833462893963,0.1943339556455612,0.9424062967300415,-0.05931492894887924,-0.5205134749412537,-0.851790726184845,27.35150909423828,45.47727203369141,2.932647705078125,0,2
1562614143.158074,38,0,309406.5801259167,0.4268554685316274,-0.06601413916727493,0.5428206163295477,-0.1267157196998596,0.03595574945211411,0.05655248463153839,0.03212261199951172,0.00263601541519165,-0.002056360244750977,2,0.2685989737510681,0.02568191476166248,0.1952998042106628,0.9428961277008057,-0.05648389831185341,-0.5165532231330872,-0.8543900847434998,27.61153411865234,46.16799926757812,3.7581787109375,0,2
1562614143.172273,39,0,309406.6150379167,0.4294616132683041,-0.06813800275677281,0.542067836145378,0.0538397841155529,-0.02172183990478516,0.0450371615588665,0.02584860101342201,0.009345114231109619,0.003260493278503418,2,0.2684204578399658,0.02495027706027031,0.196276530623436,0.9427638053894043,-0.05832483619451523,-0.5159084796905518,-0.8546558618545532,27.20615386962891,46.59954833984375,5.205047607421875,0,2
1562614143.204267,40,0,309406.6500109167,0.4314245160403075,-0.07009430242964454,0.5448247763154057,0.06177183985710144,-0.02403889782726765,0.05716937780380249,0.00644209235906601,0.0007679462432861328,-0.0022011399269104,2,0.2698821723461151,0.02458844520151615,0.1968145072460175,0.9422436356544495,-0.05989684164524078,-0.5182682275772095,-0.8531180620193481,26.55281829833984,46.2313232421875,6.323333740234375,0,2
1562614143.237539,41,0,309406.6849529167,0.433770826232021,-0.07156551014476399,0.5459545747872296,0.03468259423971176,0.01065650582313538,0.03964852169156075,-3.337860107421875e-05,-0.004566431045532227,0.009727954864501953,2,0.2705284357070923,0.02433440089225769,0.1976694911718369,0.9418858289718628,-0.06110998243093491,-0.5192341208457947,-0.8524444103240967,25.72557830810547,46.55284881591797,7.847808837890625,0,2
1562614143.269511,42,0,309406.7199269167,0.4340334198277693,-0.07029879492605703,0.546383245556333,-0.007277065888047218,0.03077239729464054,-0.01721979863941669,-0.005799669772386551,-0.004779398441314697,0.01670819520950317,2,0.2706008851528168,0.02501283772289753,0.1979449242353439,0.941789448261261,-0.06001449003815651,-0.5196004509925842,-0.8522990345954895,24.95096588134766,47.02171325683594,9.16925048828125,0,2
1562614143.31756,43,0,309406.7548389167,0.4323483159968484,-0.06855431457559047,0.5443339797362724,-0.09840893745422363,0.03186989948153496,-0.03273822367191315,0.0002609565854072571,-0.00432133674621582,0.006170272827148438,2,0.2694886028766632,0.02538567595183849,0.1974795162677765,0.9421959519386292,-0.05860039591789246,-0.5178484320640564,-0.8534629344940186,24.76303863525391,47.50835418701172,9.786773681640625,0,2
1562614143.335459,44,0,309406.7898119167,0.4309622041989329,-0.06564357367995002,0.5413118503395509,-0.07545159012079239,0.07452387362718582,-0.03318997472524643,0.01217285916209221,-0.0007943511009216309,0.006890535354614258,2,0.267800897359848,0.02624622173607349,0.1973517239093781,0.942680299282074,-0.05621834471821785,-0.5152607560157776,-0.8551876544952393,24.20059967041016,48.36692428588867,10.86740112304688,0,2
1562614143.369309,45,0,309406.8247539167,0.4295584010806137,-0.06263982344522723,0.5383396722395426,-0.08588193356990814,0.06807634234428406,-0.03051579184830189,0.01418187841773033,-0.01357132196426392,-0.007652640342712402,2,0.2661275267601013,0.02715698443353176,0.1972202658653259,0.9431557059288025,-0.05374495312571526,-0.512711226940155,-0.8568772673606873,23.53902435302734,48.908447265625,11.802734375,0,2
1562614143.401295,46,0,309406.8597279167,0.4280712480234469,-0.05965317525722403,0.5387959434373236,0.04921450093388557,0.05537790060043335,-0.03543166443705559,0.03008310496807098,0.01468366384506226,0.01212203502655029,2,0.2660682797431946,0.02841616421937943,0.1968968212604523,0.9432029724121094,-0.05117157474160194,-0.5131028890609741,-0.856800377368927,23.32154083251953,49.27528762817383,12.3883056640625,0,2
1562614143.435367,47,0,309406.8946399167,0.4281584770764371,-0.0580503032666726,0.5377057898183001,-0.07463090866804123,0.03384063765406609,0.03844381123781204,0.03647636249661446,-0.008165240287780762,-0.003290534019470215,2,0.265396773815155,0.02906797640025616,0.1971968114376068,0.9433096051216125,-0.0498305931687355,-0.5121668577194214,-0.8574392199516296,23.15340423583984,49.21345520019531,12.544189453125,0,2
1562614143.477719,48,0,309406.9296129167,0.4299156852315501,-0.05804794678800329,0.5377536622312328,0.06678810715675354,0.03258894383907318,0.02526694163680077,0.02103104814887047,0.005151271820068359,0.01360702514648438,2,0.2653934061527252,0.02930736169219017,0.1980238407850266,0.94312983751297,-0.04982714727520943,-0.5122079849243164,-0.8574148416519165,23.55667877197266,49.1839714050293,12.80160522460938,0,2
1562614143.501117,49,0,309406.9645549167,0.4307809991269971,-0.05787879818333696,0.5397243151677403,0.02295014448463917,0.007193323224782944,0.03195669874548912,0.02415364608168602,-0.004934430122375488,0.008820414543151855,2,0.2662897408008575,0.02971225790679455,0.1983714401721954,0.9427914619445801,-0.04962363094091415,-0.5138995051383972,-0.8564139008522034,23.18624114990234,48.96406173706055,14.09671020507812,0,2
1562614143.557032,50,0,309406.9994979167,0.4324469997009152,-0.05817757883418961,0.5397266191142739,0.01253731735050678,0.027420524507761,0.03877033665776253,0.006633341312408447,0.0021018385887146,0.009048521518707275,2,0.2662957310676575,0.02979349531233311,0.1991168409585953,0.9426300525665283,-0.04987944290041924,-0.5139014720916748,-0.8563978672027588,22.99068450927734,49.21080017089844,15.05096435546875,0,2
1562614143.567052,51,0,309407.0344409167,0.4330828186679546,-0.05775451391559627,0.5409759672182824,0.03903350234031677,0.02119649201631546,0.007470263633877039,0.006965760141611099,1.627206802368164e-05,0.0172160267829895,2,0.2668307423591614,0.03021153248846531,0.1994200497865677,0.9424012899398804,-0.04948002472519875,-0.5149728655815125,-0.8557772636413574,22.80796051025391,49.22682571411133,15.67080688476562,0,2
1562614143.599033,52,0,309407.0694139167,0.4330568341809942,-0.05713208948917414,0.5408353028408126,-0.04238874465227127,0.01476488262414932,0.003917838912457228,0.01435575634241104,0.001070320606231689,0.01710551977157593,2,0.2667030096054077,0.03048627078533173,0.1994967609643936,0.9424123764038086,-0.04895149543881416,-0.5148522853851318,-0.8558802008628845,22.63687896728516,49.08530807495117,15.727294921875,0,2
1562614143.635814,53,0,309407.1043259167,0.4335722822419202,-0.05751041259368621,0.5385609339924743,-0.05477334186434746,0.002024067565798759,0.01435538101941347,0.00946778804063797,0.004212915897369385,0.008077800273895264,2,0.2656648457050323,0.03013257496058941,0.199785128235817,0.9426559209823608,-0.04934246838092804,-0.5129011869430542,-0.8570284247398376,22.61275482177734,49.27099227905273,15.34347534179688,0,2
1562614143.665222,54,0,309407.1043259167,0.4335722822419202,-0.05751041259368621,0.5385609339924743,-0.05477334186434746,0.002024067565798759,0.01435538101941347,0.00946778804063797,0.004212915897369385,0.008077800273895264,2,0.2656648457050323,0.03013257496058941,0.199785128235817,0.9426559209823608,-0.04934246838092804,-0.5129011869430542,-0.8570284247398376,22.61275482177734,49.27099227905273,15.34347534179688,0,2
1562614143.716964,55,0,309407.1392989167,0.4335551616644403,-0.05661138529254554,0.5389106125745228,0.02953549288213253,0.02265224605798721,0.001405650400556624,0.01774970814585686,0.004406869411468506,0.01302361488342285,2,0.2657395303249359,0.0305915642529726,0.1998818069696426,0.9425995349884033,-0.04856180772185326,-0.5132012963294983,-0.8568933010101318,22.89032745361328,49.41275024414062,15.596923828125,0,2
1562614143.730905,56,0,309407.1742419167,0.4342203103955554,-0.05644180073272691,0.5388304016048042,-0.01168804802000523,0.01779359392821789,0.02697322703897953,0.02172635868191719,4.291534423828125e-06,0.008068203926086426,2,0.2656746804714203,0.03075123392045498,0.2002211660146713,0.9425406455993652,-0.0484188124537468,-0.5131324529647827,-0.8569426536560059,22.47637176513672,49.35725402832031,15.81072998046875,0,2
1562614143.764752,57,0,309407.2092149167,0.4348934567426652,-0.05590749145044997,0.5393097804398721,0.02904379554092884,0.01563761383295059,0.01079260371625423,0.0206436924636364,0.003803849220275879,0.01578247547149658,2,0.2658358514308929,0.03114400058984756,0.2005892843008041,0.94240403175354,-0.04794718325138092,-0.5135438442230225,-0.8567227125167847,22.89986419677734,49.3634033203125,15.52139282226562,0,2
1562614143.796708,58,0,309407.2441269167,0.4354871066118204,-0.0560245079089468,0.5392126563547548,-0.02638121508061886,0.00361904501914978,0.02572183310985565,0.01784771680831909,-0.0005062222480773926,0.005877971649169922,2,0.2657927572727203,0.03115731850266457,0.2008575350046158,0.9423585534095764,-0.04805022478103638,-0.5134605169296265,-0.8567668795585632,22.64894866943359,49.45536041259766,15.88067626953125,0,2
1562614143.830755,59,0,309407.2790999167,0.4367247249963229,-0.05612565634670334,0.5396088280412379,0.05180343613028526,0.01323304697871208,0.03013194538652897,0.01627512276172638,0.008791029453277588,0.008355140686035156,2,0.2659696042537689,0.03131692111492157,0.2014105319976807,0.9421853423118591,-0.04812547191977501,-0.5138004422187805,-0.8565588593482971,22.50370025634766,49.23026275634766,16.14230346679688,0,2
1562614143.877389,60,0,309407.3140429167,0.4385661325198656,-0.05604474203783379,0.5415588119166985,0.04514462128281593,0.03857523947954178,0.06138966605067253,0.02298537269234657,-0.002366960048675537,-0.00538557767868042,2,0.2668476402759552,0.03181133791804314,0.2022063881158829,0.9417498707771301,-0.04799994826316833,-0.5154723525047302,-0.8555607795715332,24.16139984130859,48.19132232666016,13.7928466796875,0,2
1562614143.896618,61,0,309407.3490159167,0.4416027221132705,-0.05671273938405331,0.5448276714712706,0.153763622045517,0.02881759777665138,0.06352132558822632,0.02124928683042526,0.01120829582214355,0.0162692666053772,2,0.2683999538421631,0.03225882351398468,0.2034073173999786,0.941034734249115,-0.04847568273544312,-0.51827073097229,-0.8538416624069214,25.38230133056641,46.65604400634766,11.26742553710938,0,2
1562614143.928501,62,0,309407.3839279167,0.4443132527879639,-0.05697779966946451,0.5495710153978203,0.08441347628831863,0.01761315762996674,0.07354874163866043,0.01457554474473,0.003286778926849365,0.01813757419586182,2,0.2706055343151093,0.03301859647035599,0.2044423371553421,0.9401519894599915,-0.0485614575445652,-0.5223214626312256,-0.8513648509979248,25.88793182373047,46.02656555175781,10.20809936523438,0,2
1562614143.962528,63,0,309407.4189009167,0.4482736271800031,-0.06015489485128501,0.5492884713152221,-0.01762782037258148,-0.05335225164890289,0.09400466084480286,0.009633105248212814,-0.004767119884490967,0.01508975028991699,2,0.2707347571849823,0.03203018382191658,0.2058860957622528,0.9398338198661804,-0.05127494409680367,-0.5220804810523987,-0.8513535261154175,26.94516754150391,45.05535888671875,9.631011962890625,0,2
1562614143.994993,64,0,309407.4538439167,0.4507563108530252,-0.06299610645780698,0.5492928381071546,0.01759429648518562,-0.03337384015321732,0.04738494753837585,0.006729908287525177,-0.0004908442497253418,0.0152585506439209,2,0.2709906697273254,0.03103190287947655,0.2066676169633865,0.9396221041679382,-0.05369346961379051,-0.5220842361450195,-0.851202130317688,27.31093597412109,44.51953887939453,9.642425537109375,0,2
1562614144.038013,65,0,309407.48882275,0.4524193393554846,-0.0649434925678027,0.5488019920201977,-0.05337638407945633,-0.0214465968310833,0.04247069358825684,0.0008381567895412445,-0.003366827964782715,0.00639033317565918,2,0.2709370255470276,0.03028741292655468,0.2072073072195053,0.9395430088043213,-0.0553676076233387,-0.5216655135154724,-0.8513516187667847,27.45600128173828,44.14644622802734,8.966094970703125,0,2
1562614144.060347,66,0,309407.52373475,0.4541277590831489,-0.06625652645714136,0.5462710702715633,-0.0400979146361351,-0.00657754298299551,0.04361142963171005,0.0009768866002559662,-0.017722487449646,0.0016518235206604,2,0.2698637247085571,0.02961697801947594,0.2079482078552246,0.939709484577179,-0.05657264590263367,-0.5195046067237854,-0.8525928258895874,27.67131805419922,43.72480773925781,7.8199462890625,0,2
1562614144.111898,67,0,309407.55870775,0.4540365878233603,-0.06587898166789148,0.5467784481156287,0.002099385019391775,0.0159919261932373,-0.01909534446895123,0.00831228494644165,-0.002456903457641602,0.01926243305206299,2,0.270063191652298,0.02983921393752098,0.2079330682754517,0.9396485090255737,-0.05623339116573334,-0.519938051700592,-0.8523510098457336,27.93137359619141,43.55857086181641,7.286651611328125,0,2
1562614144.126462,68,0,309407.59365075,0.4541518107201923,-0.06588346436454574,0.5442712000924318,-0.09968831390142441,0.004483118653297424,0.02113139815628529,0.01004984974861145,-0.002741754055023193,0.007653236389160156,2,0.2688888013362885,0.02957018651068211,0.2081013321876526,0.9399564862251282,-0.0563228577375412,-0.5177947282791138,-0.853648841381073,28.50113677978516,43.44455718994141,6.41107177734375,0,2
1562614144.160276,69,0,309407.62862375,0.4540855812155689,-0.06462241269032248,0.5421271011355292,-0.04108056798577309,0.04885819554328918,-0.006037185434252024,0.01328535377979279,0.0002419948577880859,0.01174569129943848,2,0.2677548825740814,0.02991253510117531,0.2083369046449661,0.9402171969413757,-0.05531788617372513,-0.5159592628479004,-0.8548251390457153,28.70612335205078,43.25704956054688,5.2867431640625,0,2
1562614144.19773,70,0,309407.66353575,0.4542158194821649,-0.06334716491860862,0.5402992105048899,-0.07395453751087189,0.04295695945620537,0.01976009458303452,0.0211796909570694,-0.00570601224899292,0.002960562705993652,2,0.2667641341686249,0.03032374568283558,0.20865099132061,0.9404158592224121,-0.05428734049201012,-0.514392614364624,-0.8558347225189209,29.51313018798828,42.87705612182617,4.349578857421875,0,2
1562614144.226224,71,0,309407.69850875,0.4553370479498399,-0.06196473948557035,0.5385379283476229,-0.014371357858181,0.05142653733491898,0.02907438203692436,0.01919639110565186,0.005598127841949463,0.01425409317016602,2,0.2657775580883026,0.03092464990913868,0.2094410359859467,0.9405000805854797,-0.05316018313169479,-0.5128813982009888,-0.8568119406700134,30.32682037353516,42.96574783325195,3.332611083984375,0,2
1562614144.279857,72,0,309407.69850875,0.4553370479498399,-0.06196473948557035,0.5385379283476229,-0.014371357858181,0.05142653733491898,0.02907438203692436,0.01919639110565186,0.005598127841949463,0.01425409317016602,2,0.2657775580883026,0.03092464990913868,0.2094410359859467,0.9405000805854797,-0.05316018313169479,-0.5128813982009888,-0.8568119406700134,30.32682037353516,42.96574783325195,3.332611083984375,0,2
1562614144.292488,73,0,309407.73342075,0.4561888913178739,-0.06045561043953391,0.5372110956708697,-0.08705921471118927,0.04247989133000374,0.03132006153464317,0.02274904400110245,0.005052089691162109,0.009504556655883789,2,0.2649844288825989,0.03159769251942635,0.2101007401943207,0.9405543804168701,-0.05190815404057503,-0.5117419362068176,-0.857569694519043,30.73189544677734,42.58663177490234,2.916412353515625,0,2
1562614144.324009,74,0,309407.76839375,0.4587968007369431,-0.06120161887425696,0.5337485510352075,-0.05398615449666977,-0.0008150245994329453,0.08136992901563644,0.01580752059817314,0.004831671714782715,0.007020115852355957,2,0.2633998990058899,0.03119933977723122,0.2113820016384125,0.9407256841659546,-0.05265595391392708,-0.5087640285491943,-0.8592941761016846,31.12915802001953,42.16924667358398,2.282745361328125,0,2
1562614144.35809,75,0,309407.80333675,0.4601912579618141,-0.06092502945352529,0.5339932918899225,0.01612652093172073,0.02138456329703331,0.02363161370158195,0.01551614329218864,-0.006660640239715576,0.004697680473327637,2,0.2634634077548981,0.03154092654585838,0.2120634168386459,0.9405431151390076,-0.05241069942712784,-0.5089747309684753,-0.8591843843460083,31.72637176513672,41.54594039916992,1.332977294921875,0,2
1562614144.389893,76,0,309407.83830975,0.4619974816285126,-0.06205426684996867,0.5343153180837995,0.008604006841778755,-0.01364343427121639,0.04939696192741394,0.007291797548532486,0.005060970783233643,0.01408696174621582,2,0.2637057900428772,0.03128472715616226,0.2127495557069778,0.9403287768363953,-0.05337072163820267,-0.5092518925666809,-0.8589610457420349,32.75141143798828,40.88592529296875,0.222930908203125,0,2
1562614144.438298,77,0,309407.87322175,0.464095061846205,-0.0632722124132,0.5335283578362706,-0.02637606114149094,-0.02116319723427296,0.06473877280950546,-0.0002411231398582458,-0.001629292964935303,0.01309394836425781,2,0.2634345293045044,0.03089835122227669,0.2136105895042419,0.9402223229408264,-0.05444217100739479,-0.5085744857788086,-0.8592950701713562,33.51351165771484,40.78424453735352,0.235748291015625,0,2
1562614144.455746,78,0,309407.90819575,0.4665510617321552,-0.06520195443309254,0.5323903478816876,-0.04471395909786224,-0.00649771373718977,0.05464877560734749,-0.001487758010625839,0.00335538387298584,0.01342767477035522,2,0.263070821762085,0.03018328174948692,0.21456278860569,0.9401306509971619,-0.05613796040415764,-0.5075942873954773,-0.8597654104232788,34.29027557373047,39.90950775146484,-1.053558349609375,0,2
1562614144.489731,79,0,309407.94313775,0.4685707133943622,-0.06665164407622669,0.5299412522412164,-0.06622489541769028,-0.01132966671139002,0.05421771481633186,-0.003315374255180359,-0.002802670001983643,0.003323793411254883,2,0.2620501816272736,0.02948307245969772,0.2154342234134674,0.9402384757995605,-0.05746691673994064,-0.5054826736450195,-0.8609209060668945,34.70009613037109,39.51070785522461,-2.57940673828125,0,2
1562614144.521739,80,0,309407.97811075,0.4694495192930405,-0.06602314284168342,0.5282383624399798,-0.05328705906867981,0.0469549298286438,0.005686231423169374,-0.0007182098925113678,0.006848692893981934,0.01135987043380737,2,0.2611721754074097,0.02969545312225819,0.2160077840089798,0.9403446316719055,-0.05698252469301224,-0.5040125846862793,-0.861814558506012,34.85503387451172,39.26718902587891,-2.303741455078125,0,2
1562614144.555784,81,0,309408.01302275,0.4699225404141076,-0.06580228274585229,0.5249099030064699,-0.1189532727003098,0.004619963467121124,0.02722528390586376,0.01806119084358215,-0.003418326377868652,0.005567312240600586,2,0.2595826983451843,0.0294733140617609,0.2164112031459808,0.9406989216804504,-0.05690217763185501,-0.5011350512504578,-0.8634963035583496,34.69187164306641,40.0739860534668,-1.610382080078125,0,2
1562614144.59359,82,0,309408.04799675,0.4705370787336561,-0.06472438031257109,0.5211431366104791,-0.08620878309011459,0.04904471337795258,0.01649041101336479,0.02759635075926781,0.001965373754501343,0.01597714424133301,2,0.2576921880245209,0.02962083742022514,0.2170108109712601,0.9410758018493652,-0.05609307438135147,-0.4978718459606171,-0.8654347062110901,34.45684051513672,40.25561141967773,-0.8876953125,0,2
1562614144.621639,83,0,309408.08293875,0.4704823927997414,-0.06427446506332105,0.5180497135129805,-0.1003297790884972,-0.004153180867433548,0.005244385451078415,0.03832205757498741,-0.00464513897895813,0.008290588855743408,2,0.2561942636966705,0.0294648502022028,0.2171823084354401,0.9414500594139099,-0.0558023527264595,-0.4951866865158081,-0.8669926524162292,33.33531951904297,41.16907501220703,0.726776123046875,0,2
1562614144.67279,84,0,309408.11791175,0.4711598004503046,-0.0640222715296915,0.5148124414111579,-0.0617574006319046,0.023032546043396,0.0379873663187027,0.03436028584837914,0.0001496970653533936,0.003478288650512695,2,0.2546389698982239,0.02929238043725491,0.2176786065101624,0.9417626857757568,-0.05568597093224525,-0.4923716187477112,-0.86860191822052,32.66129302978516,41.72871780395508,2.376129150390625,0,2
1562614144.687366,85,0,309408.15282375,0.4727343965714384,-0.06337230812982213,0.5146045577885265,-0.0002853833138942719,0.05321048200130463,0.03650685772299767,0.0276673324406147,0.004378259181976318,0.01066619157791138,2,0.254447340965271,0.02977449633181095,0.2185119986534119,0.9416064023971558,-0.05512788146734238,-0.4921906590461731,-0.8687400817871094,32.22618865966797,41.92012405395508,3.005279541015625,0,2
1562614144.719156,86,0,309408.18779775,0.4753267685093549,-0.06364700187011521,0.5137108664378871,-0.01810588128864765,0.0009543541818857193,0.09270675480365753,0.01267554983496666,-0.0025348961353302,0.01136487722396851,2,0.2540197670459747,0.02986979112029076,0.2197374701499939,0.9414336085319519,-0.05539447069168091,-0.4914125204086304,-0.8691635131835938,31.65032196044922,42.17133331298828,4.62933349609375,0,2
1562614144.75335,87,0,309408.22273975,0.4787915413007772,-0.06546610055230476,0.5139311085997439,0.008815417066216469,-0.01289836224168539,0.07461521774530411,0.0001221857964992523,0.01113089919090271,0.02450573444366455,2,0.254272073507309,0.02947998978197575,0.2211269587278366,0.9410523772239685,-0.05696839094161987,-0.4916043281555176,-0.8689532876014709,31.33481597900391,42.36499786376953,5.605194091796875,0,2
1562614144.785289,88,0,309408.25771275,0.4823596260454497,-0.06946294194109123,0.5121318060228667,-0.06716650724411011,-0.07815800607204437,0.1062833443284035,-0.006531540304422379,-0.005651921033859253,0.001028895378112793,2,0.2538212239742279,0.02783828228712082,0.2223808467388153,0.9409285187721252,-0.06050229072570801,-0.49003666639328,-0.8695996403694153,30.56920623779297,42.14360809326172,6.542816162109375,0,2
1562614144.833161,89,0,309408.29262475,0.4857457632121855,-0.06966465082628344,0.5114550502819037,0.03096501529216766,0.1054674908518791,0.06668542325496674,-0.02174416556954384,-0.001940041780471802,-0.001658201217651367,2,0.2534794509410858,0.02809153124690056,0.2239796221256256,0.9406339526176453,-0.06070076674222946,-0.489446610212326,-0.8699180483818054,30.05741119384766,42.17601776123047,7.7587890625,0,2
1562614144.851305,90,0,309408.29262475,0.4857457632121855,-0.06966465082628344,0.5114550502819037,0.03096501529216766,0.1054674908518791,0.06668542325496674,-0.02174416556954384,-0.001940041780471802,-0.001658201217651367,2,0.2534794509410858,0.02809153124690056,0.2239796221256256,0.9406339526176453,-0.06070076674222946,-0.489446610212326,-0.8699180483818054,30.05741119384766,42.17601776123047,7.7587890625,0,2
1562614144.885193,91,0,309408.32759875,0.4867286594984376,-0.06605162826025746,0.5131007094013331,0.02533919364213943,0.108364462852478,-0.01444679498672485,-0.01084643974900246,-0.008666932582855225,0.0167163610458374,2,0.253830224275589,0.03011352196335793,0.2248236984014511,0.940275251865387,-0.05750409886240959,-0.4908810257911682,-0.8693267703056335,29.41262054443359,42.12783813476562,9.446533203125,0,2
1562614144.917046,92,0,309408.36254075,0.4840809887544234,-0.06356346336296689,0.5109341193036702,-0.1033046916127205,-0.00890631228685379,-0.07395879179239273,0.01026330515742302,0.001114487648010254,0.01334023475646973,2,0.2525766789913177,0.03068806789815426,0.2239924371242523,0.9407925009727478,-0.05540832504630089,-0.4889922738075256,-0.8705265522003174,29.01428985595703,42.40945816040039,10.34982299804688,0,2
1562614144.951125,93,0,309408.39748375,0.4822512592751598,-0.06450356109528776,0.508053141382666,-0.06789278984069824,-0.05205661058425903,-0.02367893047630787,0.02217515558004379,0.03004395961761475,-0.004701912403106689,2,0.2513593137264252,0.02967057749629021,0.2231431603431702,0.941352903842926,-0.05631725490093231,-0.4864772260189056,-0.8718762993812561,28.22136688232422,43.32307434082031,11.220947265625,0,2
1562614144.98827,94,0,309408.43242575,0.4830328228082105,-0.06753866124643039,0.5065765835206659,-0.03053044527769089,-0.09877696633338928,0.04900316148996353,0.0237443819642067,0.01640725135803223,-0.01072162389755249,2,0.2509945929050446,0.02816345542669296,0.2231970429420471,0.9414836764335632,-0.05901163443922997,-0.4851866364479065,-0.8724170923233032,27.18921661376953,43.79046630859375,11.9720458984375,0,2
1562614145.01697,95,0,309408.46739975,0.4859803530412438,-0.07152789579835893,0.5061984151942184,0.01101097092032433,-0.04506553709506989,0.08353042602539062,0.01709534227848053,0.008568555116653442,0.005561113357543945,2,0.2512231171131134,0.02661037445068359,0.2241010665893555,0.941253125667572,-0.06250453740358353,-0.4848559200763702,-0.8723576664924622,25.68131256103516,43.94336318969727,12.98846435546875,0,2
1562614145.048932,96,0,309408.5023046667,0.4891984212223311,-0.0742484555787282,0.5064545243969798,0.004430813249200583,-0.04074859246611595,0.07337884604930878,0.01210798323154449,-0.008968234062194824,0.01893538236618042,2,0.2516065239906311,0.02576580457389355,0.2252611517906189,0.9408973455429077,-0.06486839801073074,-0.4850798845291138,-0.8720605373382568,25.00945281982422,44.15743255615234,13.7391357421875,0,2
1562614145.082662,97,0,309408.5372776667,0.4902422505003917,-0.07586861279867875,0.5046834434282634,-0.06750507652759552,-0.03302084654569626,0.007083224132657051,0.01045994460582733,-0.02449691295623779,0.01680153608322144,2,0.2509467303752899,0.02491895295679569,0.2256335765123367,0.9410070180892944,-0.06634619832038879,-0.4835303723812103,-0.8728095889091492,24.81330108642578,44.23004150390625,14.03854370117188,0,2
1562614145.115425,98,0,309408.5722196667,0.4894166190872077,-0.07595792866157591,0.5038592270297693,0.001615933608263731,0.00620218925178051,-0.0393439307808876,0.0103546604514122,-0.002194046974182129,0.0201229453086853,2,0.2505810856819153,0.02467292174696922,0.2252734750509262,0.9411972165107727,-0.06645437330007553,-0.4828087389469147,-0.8732007145881653,24.08417510986328,44.42208862304688,13.95217895507812,0,2
1562614145.148779,99,0,309408.6071936667,0.4878075664291035,-0.07501132977108488,0.5026330303766069,-0.08204299211502075,-0.01103668939322233,-0.01679586246609688,0.01436249911785126,-0.007297992706298828,0.0004819035530090332,2,0.249920129776001,0.02476801350712776,0.2246932089328766,0.9415091276168823,-0.06567209213972092,-0.481734573841095,-0.8738529682159424,24.02523040771484,44.54224395751953,13.62612915039062,0,2
1562614145.180714,100,0,309408.6421056667,0.4883169461030585,-0.07483073897916137,0.5009450717164243,-0.009522159583866596,0.0410432405769825,0.0238819308578968,0.0157911404967308,0.01397088170051575,0.01244348287582397,2,0.2491026371717453,0.02471156604588032,0.2250358462333679,0.9416454434394836,-0.06557498127222061,-0.4802547097206116,-0.8746744394302368,23.49127960205078,44.95037841796875,14.04220581054688,0,2
1562614145.226592,101,0,309408.6770786667,0.4896537943340685,-0.07410128615759363,0.5003019924478105,-0.05155962705612183,0.001121122390031815,0.05340014398097992,0.01915758848190308,-0.01026037335395813,0.01298248767852783,2,0.2487024366855621,0.02514313533902168,0.2257865369319916,0.9415600895881653,-0.06495977938175201,-0.4796905517578125,-0.8750298619270325,23.30751800537109,45.30968475341797,15.15426635742188,0,2
1562614145.246444,102,0,309408.7120216667,0.4914876622997794,-0.07531912015541826,0.4975026888833468,-0.06383481621742249,0.01340498216450214,0.03556527942419052,0.003785185515880585,-0.001186341047286987,0.006397128105163574,2,0.2475057691335678,0.02445561438798904,0.2266318649053574,0.9416903853416443,-0.06612615287303925,-0.4772324562072754,-0.8762856125831604,23.23288726806641,45.33940887451172,15.26324462890625,0,2
1562614145.280566,103,0,309408.7469946667,0.4915119221393321,-0.07396234266255668,0.4972376907462226,0.007330932188779116,0.04311086982488632,-0.01627929694950581,0.007990136742591858,0.002410411834716797,0.01328051090240479,2,0.2472274750471115,0.02506504766643047,0.2268236726522446,0.9417012929916382,-0.06494650989770889,-0.4769995510578156,-0.87650066614151,23.36884307861328,45.18572998046875,15.28057861328125,0,2
1562614145.312647,104,0,309408.7819066667,0.489795693638368,-0.07196160028347176,0.4955209517549102,-0.09180498868227005,0.01133223250508308,-0.04015520960092545,0.01579886674880981,-0.0002762079238891602,0.007816851139068604,2,0.2462177872657776,0.02558615058660507,0.2263428568840027,0.9420674443244934,-0.06325151771306992,-0.475490003824234,-0.877444326877594,22.89058685302734,45.46913146972656,15.79803466796875,0,2
1562614145.34694,105,0,309408.8168796667,0.4883555313272993,-0.07105636289104186,0.4937285986052208,-0.003716719103977084,0.03102153167128563,-0.03064507991075516,0.01605570316314697,0.0152338445186615,0.002345561981201172,2,0.2452932745218277,0.02561782673001289,0.2258588224649429,0.9424238204956055,-0.06251759827136993,-0.4739124774932861,-0.8783499002456665,23.31859588623047,45.99326324462891,15.60675048828125,0,2
1562614145.397618,106,0,309408.8518226667,0.4873927333429146,-0.06844033874797777,0.4950454282680562,0.02722950652241707,0.0548383928835392,-0.01812994852662086,0.02059322968125343,0.01210698485374451,0.01141881942749023,2,0.2456283569335938,0.02689184620976448,0.2256657183170319,0.9423474073410034,-0.06017687544226646,-0.4750716388225555,-0.8778870701789856,23.15938568115234,46.08299255371094,15.7642822265625,0,2
1562614145.412671,107,0,309408.8518226667,0.4873927333429146,-0.06844033874797777,0.4950454282680562,0.02722950652241707,0.0548383928835392,-0.01812994852662086,0.02059322968125343,0.01210698485374451,0.01141881942749023,2,0.2456283569335938,0.02689184620976448,0.2256657183170319,0.9423474073410034,-0.06017687544226646,-0.4750716388225555,-0.8778870701789856,23.15938568115234,46.08299255371094,15.7642822265625,0,2
1562614145.444257,108,0,309408.8867956667,0.4876099617870016,-0.06751241791391785,0.4939815968688827,-0.04911503568291664,0.04050612822175026,0.01184661965817213,0.01180063933134079,-0.001175045967102051,0.0110785961151123,2,0.2450215369462967,0.02722704224288464,0.225930318236351,0.9424322843551636,-0.05939630046486855,-0.4741352498531342,-0.8784462809562683,23.44207000732422,46.25662994384766,16.3070068359375,0,2
1562614145.478147,109,0,309408.9217076667,0.4870389437516021,-0.06443941874014818,0.4934247200428741,0.00133765721693635,0.0859237015247345,-0.0258408710360527,0.007725384086370468,-0.009447962045669556,0.01799064874649048,2,0.2444209009408951,0.02853799425065517,0.2260622829198837,0.942517876625061,-0.05671355500817299,-0.4736448526382446,-0.8788880109786987,23.32155609130859,46.32305145263672,16.81698608398438,0,2
1562614145.510215,110,0,309408.9566806667,0.4849245213019374,-0.06090765452218007,0.4925457442067701,-0.05921343713998795,0.06064269691705704,-0.06042889133095741,0.01671148091554642,-0.008727937936782837,0.01121628284454346,2,0.2436403632164001,0.02983888052403927,0.2255353778600693,0.9428058266639709,-0.05363450199365616,-0.4728705585002899,-0.8794980049133301,23.42679595947266,46.39874267578125,17.14654541015625,0,2
1562614145.55187,111,0,309408.9916236667,0.483286563547876,-0.05854397890399651,0.4909739562701933,-0.01335074100643396,0.05065333098173141,-0.02567948400974274,0.0171448215842247,0.01149100065231323,0.009183585643768311,2,0.2426604628562927,0.0305660106241703,0.2251183986663818,0.9431348443031311,-0.0515989288687706,-0.4714850187301636,-0.8803632259368896,23.46457672119141,46.64160537719727,17.36773681640625,0,2
1562614145.576138,112,0,309409.0265966667,0.4821005740626055,-0.05574096929658573,0.490834140959686,-0.03962014243006706,0.05091211572289467,-0.01542366296052933,0.02389330789446831,0.003784120082855225,0.0009832382202148438,2,0.242297887802124,0.03172744065523148,0.2249048799276352,0.9432405829429626,-0.04913473501801491,-0.4713617265224457,-0.8805702328681946,23.52480316162109,46.87361526489258,17.31124877929688,0,2
1562614145.610057,113,0,309409.0615086667,0.4834092245878485,-0.05610602521408895,0.4894543048576134,0.01009050011634827,0.01399622112512589,0.05170295387506485,0.01686645671725273,0.004197597503662109,0.000836491584777832,2,0.2416697591543198,0.0315491296350956,0.2255360633134842,0.9432570338249207,-0.04949261620640755,-0.4701443314552307,-0.8812007308006287,23.63047027587891,46.67405700683594,17.480712890625,0,2
1562614145.64265,114,0,309409.0964816667,0.4845162635873691,-0.05515920971028959,0.4918731340579884,0.06007632985711098,0.02220435626804829,0.0203336626291275,0.0100170224905014,-0.001356065273284912,0.01622277498245239,2,0.2426817864179611,0.03241858258843422,0.2260706722736359,0.9428396224975586,-0.04859542101621628,-0.4722777903079987,-0.8801091909408569,23.94460296630859,46.42936706542969,17.47177124023438,0,2
1562614145.67612,115,0,309409.1313936667,0.4858185870683382,-0.05651149732783297,0.4905548026532963,-0.066959448158741,-0.02527821995317936,0.03183489292860031,0.009306218475103378,-0.009203493595123291,0.005883097648620605,2,0.2421945631504059,0.03178107365965843,0.2265765070915222,0.9428651928901672,-0.0498206615447998,-0.4711153507232666,-0.8806635141372681,23.75742340087891,46.09184265136719,17.4815673828125,0,2
1562614145.726299,116,0,309409.1663666667,0.4851903299800354,-0.05594128218738946,0.4901682643133304,0.03532763198018074,0.01273629628121853,-0.04193992912769318,0.006845112890005112,0.003516554832458496,0.01042693853378296,2,0.2419583797454834,0.03192752227187157,0.2263657003641129,0.9429715871810913,-0.04932866245508194,-0.4707743525505066,-0.8808735609054565,23.84709930419922,46.1368293762207,17.43014526367188,0,2
1562614145.741981,117,0,309409.2013096667,0.4832289853286383,-0.05422795358181907,0.4903306218893373,-0.05822793394327164,0.01881737075746059,-0.03622959554195404,0.0222972147166729,0.009519457817077637,0.01522505283355713,2,0.2418726831674576,0.03251757845282555,0.2256412953138351,0.9431469440460205,-0.0478152222931385,-0.4709175825119019,-0.8808804154396057,23.89179229736328,46.36457061767578,17.54666137695312,0,2
1562614145.793058,118,0,309409.2362826667,0.4837960021919508,-0.05511945682120946,0.4872947776124478,-0.05226876586675644,-0.02999150566756725,0.04439216479659081,0.02581733092665672,0.0004110038280487061,0.00166928768157959,2,0.2405371516942978,0.03180325776338577,0.2259281873703003,0.9434441924095154,-0.04867904633283615,-0.4682372510433197,-0.8822608590126038,24.12555694580078,46.37112808227539,17.747802734375,0,2
1562614145.807746,119,0,309409.2711946667,0.4851685414196234,-0.05579551036693235,0.48905685312473,0.0781082808971405,0.001077510416507721,0.02973993122577667,0.02418649941682816,0.007630705833435059,0.01637363433837891,2,0.2414200007915497,0.03186052292585373,0.2264200150966644,0.9430987238883972,-0.04922940209507942,-0.4697934985160828,-0.8814025521278381,23.90525054931641,46.05398559570312,17.44082641601562,0,2
1562614145.839744,120,0,309409.3061676667,0.4877749276880256,-0.05936329758811189,0.4896897508984842,-0.01458921283483505,-0.09967145323753357,0.08486388623714447,0.0109909288585186,0.007518738508224487,0.01949578523635864,2,0.2420812398195267,0.03056951053440571,0.2271905541419983,0.9427866339683533,-0.05235609039664268,-0.4703521132469177,-0.8809243440628052,23.60457611083984,46.08329391479492,17.1749267578125,0,2
1562614145.873637,121,0,309409.3411106667,0.4906800396383615,-0.06236689946377551,0.4886805385886251,-0.007024668157100677,-0.03224315121769905,0.06594470888376236,-0.006593495607376099,0.007389634847640991,0.008699893951416016,2,0.2419058084487915,0.02938316017389297,0.228240504860878,0.9426156878471375,-0.05503135174512863,-0.4694612622261047,-0.8812364339828491,23.66451263427734,45.83248901367188,17.245849609375,0,2
1562614145.9059,122,0,309409.3760836667,0.4919022296253246,-0.06362731725924455,0.4897488404327737,0.03690773248672485,-0.003352673724293709,0.006744535639882088,-0.005757275968790054,0.0004604756832122803,0.01430779695510864,2,0.242533341050148,0.02906711772084236,0.2286165207624435,0.9423731565475464,-0.05611011385917664,-0.4704042673110962,-0.8806653618812561,23.58249664306641,45.70874786376953,17.04312133789062,0,2
1562614145.952713,123,0,309409.4109956667,0.4920328545892333,-0.06408275738820661,0.4890485358037722,-0.04384836554527283,-0.03843130171298981,0.01312466990202665,-0.0003601238131523132,-0.008474588394165039,0.01140677928924561,2,0.2422548532485962,0.0287830363959074,0.2286540418863297,0.942444384098053,-0.05653228238224983,-0.4697861671447754,-0.8809682726860046,23.38809967041016,45.66277313232422,16.60470581054688,0,2
1562614145.971638,124,0,309409.4109956667,0.4920328545892333,-0.06408275738820661,0.4890485358037722,-0.04384836554527283,-0.03843130171298981,0.01312466990202665,-0.0003601238131523132,-0.008474588394165039,0.01140677928924561,2,0.2422548532485962,0.0287830363959074,0.2286540418863297,0.942444384098053,-0.05653228238224983,-0.4697861671447754,-0.8809682726860046,23.38809967041016,45.66277313232422,16.60470581054688,0,2
1562614146.005927,125,0,309409.4459686667,0.4916954879416807,-0.06410682101350154,0.4880849734157661,-0.02791534550487995,0.02213052101433277,-0.02219278365373611,0.00614459440112114,0.006069451570510864,0.007996976375579834,2,0.2418101578950882,0.02861348353326321,0.2285350114107132,0.9425926804542542,-0.05658245459198952,-0.4689353406429291,-0.8814182281494141,23.07993316650391,45.8099365234375,16.42733764648438,0,2
1562614146.037467,126,0,309409.4809116667,0.4913140766589847,-0.0639896716564964,0.4862724459873224,-0.04749700427055359,-0.01789938844740391,0.01036811526864767,0.01544917747378349,-0.009496301412582397,-0.01060336828231812,2,0.240951269865036,0.02840202115476131,0.2284498363733292,0.9428396224975586,-0.05653345584869385,-0.4673336744308472,-0.8822716474533081,23.07643890380859,45.57212829589844,16.06777954101562,0,2
1562614146.071564,127,0,309409.51587625,0.4911868853117215,-0.0624526895179934,0.4870925001229192,0.04664450138807297,0.06516643613576889,-0.01720515266060829,0.02172700315713882,0.006366342306137085,0.009942770004272461,2,0.2411625534296036,0.02921096049249172,0.228538915514946,0.9427393078804016,-0.05515341460704803,-0.4680585265159607,-0.8819746971130371,23.19528961181641,45.63644409179688,16.23306274414062,0,2
1562614146.113197,128,0,309409.55078825,0.4910315926562982,-0.06203583351122735,0.4871612841128536,-0.02447596006095409,-0.02126218564808369,0.005967175588011742,0.03174803778529167,-0.007641255855560303,0.0093994140625,2,0.241149514913559,0.02939710207283497,0.2285129725933075,0.9427430629730225,-0.05478375777602196,-0.4681192934513092,-0.8819654583930969,23.21807098388672,45.59306716918945,16.35797119140625,0,2
1562614146.137312,129,0,309409.58576125,0.4909983782495855,-0.06096798976655528,0.4866885860891803,0.009845472872257233,0.04504732042551041,-0.009428722783923149,0.01270611956715584,0.00262153148651123,0.00478053092956543,2,0.2408059984445572,0.02983904257416725,0.2286466658115387,0.9427845478057861,-0.05385540053248405,-0.4677015542984009,-0.8822442293167114,23.41817474365234,45.48226165771484,16.15109252929688,0,2
1562614146.169777,130,0,309409.62070425,0.4904016431098183,-0.06021708564673205,0.488611501445755,0.05674203857779503,0.0107514001429081,-0.01612462662160397,0.01647444441914558,0.004826456308364868,0.01240396499633789,2,0.2416321337223053,0.03035435080528259,0.228372186422348,0.9426232576370239,-0.05313868448138237,-0.4694003164768219,-0.8813850283622742,23.40235137939453,45.35808181762695,16.40994262695312,0,2
1562614146.203227,131,0,309409.65567725,0.4910852225434738,-0.05993474636711566,0.4888685189086317,-0.005068173632025719,-0.009523503482341766,0.03808223456144333,0.01110628992319107,-0.002026349306106567,0.0163877010345459,2,0.2417101114988327,0.03060118481516838,0.2287172675132751,0.9425116777420044,-0.0528826043009758,-0.4696272313594818,-0.8812795877456665,23.39846038818359,45.24365234375,16.83963012695312,0,2
1562614146.235298,132,0,309409.69058925,0.4922129969584763,-0.06107029448078996,0.4892692853630982,0.02411177568137646,-0.006784955970942974,0.01499980129301548,-0.002276808023452759,0.006262540817260742,0.01375836133956909,2,0.2420110702514648,0.03025120310485363,0.2290938794612885,0.9423542022705078,-0.05387181416153908,-0.4699810147285461,-0.8810310363769531,23.42736053466797,45.39640808105469,16.9288330078125,0,2
1562614146.277732,133,0,309409.72556225,0.4928178398242113,-0.06152111748835389,0.4897240356347773,0.002093908842653036,-0.01385622099041939,0.01569066382944584,-0.003692746162414551,0.001003473997116089,0.01486301422119141,2,0.2422670423984528,0.03016742318868637,0.2293042987585068,0.9422398805618286,-0.05425585061311722,-0.4703823924064636,-0.8807932138442993,23.43610382080078,45.56487274169922,16.92279052734375,0,2
1562614146.301334,134,0,309409.76047425,0.4931442994718387,-0.06150997394679103,0.4886491602369861,-0.03145184367895126,0.02348717860877514,0.005673695355653763,-0.00795920193195343,-0.0007096827030181885,0.006731986999511719,2,0.2417563796043396,0.03008112125098705,0.2295067459344864,0.9423245191574097,-0.05427708476781845,-0.4694335758686066,-0.8812979459762573,23.26738739013672,45.45212554931641,17.15097045898438,0,2
1562614146.357648,135,0,309409.79544825,0.4922951448721689,-0.060650903567838,0.4885783658874727,-0.005284026265144348,0.008831050246953964,-0.0390903651714325,0.0103885680437088,-0.001993119716644287,0.01312881708145142,2,0.2416374385356903,0.03037464059889317,0.229213535785675,0.9424170851707458,-0.05352198332548141,-0.4693710505962372,-0.8813774585723877,23.49372100830078,45.44526290893555,17.09796142578125,0,2
1562614146.366916,136,0,309409.83039025,0.491187001401148,-0.05960881606983041,0.4862207247594166,-0.0885191485285759,0.01426605693995953,-0.008244344964623451,0.01981902867555618,-0.004094362258911133,-0.003870010375976562,2,0.2404279410839081,0.03044562041759491,0.2289194166660309,0.9427955150604248,-0.05266926065087318,-0.4672879576683044,-0.882534921169281,23.19570159912109,45.32431030273438,16.83132934570312,0,2
1562614146.400916,137,0,309409.86536325,0.4907521764361588,-0.05839986431240415,0.4858617586234676,0.02797698974609375,0.04328329861164093,-0.02450902573764324,0.03037220612168312,0.0103430449962616,0.00643157958984375,2,0.2401276379823685,0.03091973997652531,0.228875145316124,0.9428673982620239,-0.05161206796765327,-0.4669705629348755,-0.8827653527259827,23.33399200439453,45.28340911865234,16.93478393554688,0,2
1562614146.433304,138,0,309409.90027525,0.4904640394927434,-0.05714783638918335,0.4855933725889122,-0.04024846851825714,-0.0005196109414100647,0.01612703502178192,0.03868713229894638,-0.00597730278968811,0.006697118282318115,2,0.239862784743309,0.03144291415810585,0.2289010435342789,0.9429111480712891,-0.05051393434405327,-0.4667332172393799,-0.8829543590545654,23.49146270751953,45.20230865478516,16.94387817382812,0,2
1562614146.466816,139,0,309409.93524925,0.4917966453270695,-0.05791012028417755,0.4849857451896977,0.02326863072812557,0.009495770558714867,0.03062285296618938,0.020212572067976,0.004104644060134888,0.005232691764831543,2,0.2396438270807266,0.03116958402097225,0.2294638603925705,0.9428391456604004,-0.05120338872075081,-0.4661957621574402,-0.8831985592842102,23.25531768798828,44.85310745239258,16.5950927734375,0,2
1562614146.512301,140,0,309409.97019125,0.492364173018897,-0.05797549457276106,0.4873212586618287,0.05609601363539696,-0.01239971071481705,0.01743722707033157,0.01633136346936226,0.004036605358123779,0.01408696174621582,2,0.2407393008470535,0.03149078041315079,0.2296232432126999,0.9425104856491089,-0.05119789764285088,-0.4682606756687164,-0.882105827331543,23.46050262451172,44.42154693603516,16.67648315429688,0,2
1562614146.532703,141,0,309410.00516425,0.4942435660471945,-0.05951057365488543,0.4869652772303456,-0.0180713627487421,-0.01505833305418491,0.06346187740564346,0.0003481209278106689,-0.003541499376296997,0.007795631885528564,2,0.240719348192215,0.03095025382936001,0.2303394675254822,0.9423587322235107,-0.05256184935569763,-0.4679460823535919,-0.8821925520896912,23.38307952880859,44.09923934936523,16.65994262695312,0,2
1562614146.565033,142,0,309410.00516425,0.4942435660471945,-0.05951057365488543,0.4869652772303456,-0.0180713627487421,-0.01505833305418491,0.06346187740564346,0.0003481209278106689,-0.003541499376296997,0.007795631885528564,2,0.240719348192215,0.03095025382936001,0.2303394675254822,0.9423587322235107,-0.05256184935569763,-0.4679460823535919,-0.8821925520896912,23.38307952880859,44.09923934936523,16.65994262695312,0,2
1562614146.602523,143,0,309410.04007625,0.4954978713964786,-0.05992064039543629,0.4883516140144944,0.06201740354299545,0.005550015717744827,0.002428516279906034,-0.007903981953859329,0.002384781837463379,0.01580685377120972,2,0.2413978278636932,0.03107776120305061,0.230820506811142,0.9420632719993591,-0.05288470163941383,-0.4691708385944366,-0.881522536277771,23.59723663330078,44.1492919921875,16.59268188476562,0,2
1562614146.63069,144,0,309410.07505025,0.4952151045718721,-0.05985488989923221,0.4881692780169692,-0.05001800879836082,-0.005506646819412708,-0.002358498983085155,-0.0004648230969905853,0.006191015243530273,0.0175437331199646,2,0.2413090765476227,0.03105229698121548,0.2307032197713852,0.9421155452728271,-0.05283185839653015,-0.4690097868442535,-0.8816113471984863,23.58974456787109,43.73708343505859,16.4305419921875,0,2
1562614146.672846,145,0,309410.10999225,0.4950942005611649,-0.05979777642070747,0.4860560093496619,-0.05377592891454697,0.004992788657546043,-0.00370936025865376,0.001787010580301285,0.004473477602005005,0.0043296217918396,2,0.2403124868869781,0.03080607764422894,0.2307452857494354,0.9423680305480957,-0.05284062027931213,-0.4671423137187958,-0.882601797580719,23.54764556884766,43.95713043212891,16.53555297851562,0,2
1562614146.696442,146,0,309410.14496525,0.4948767250714563,-0.0590150327315115,0.4859953368608953,0.01922710612416267,0.02701854147017002,-0.00476439855992794,0.01797301322221756,0.00745624303817749,0.01372224092483521,2,0.2401970624923706,0.03114135004580021,0.2307394742965698,0.9423878788948059,-0.05215142667293549,-0.4670886695384979,-0.8826711773872375,23.61373138427734,44.2029914855957,16.375244140625,0,2
1562614146.732217,147,0,309410.17987825,0.4953709225176949,-0.05910451565972485,0.4853864500313936,-0.04502640292048454,-0.005464587360620499,0.02608967199921608,0.02345528453588486,0.003605842590332031,0.01348292827606201,2,0.2399138659238815,0.03108403272926807,0.2309879958629608,0.9424009919166565,-0.05224720016121864,-0.466550201177597,-0.8829502463340759,23.75055694580078,44.20513153076172,16.20101928710938,0,2
1562614146.762407,148,0,309410.21485125,0.4965972538941959,-0.05980521692325355,0.484212496897906,-0.003372086444869637,0.004613675177097321,0.03245056420564651,0.01727168262004852,0.008730143308639526,0.009003400802612305,2,0.2394248098134995,0.03075695037841797,0.2315328568220139,0.9424024224281311,-0.05289857089519501,-0.4655115306377411,-0.8834595680236816,23.38805389404297,44.57400512695312,15.98468017578125,0,2
1562614146.796321,149,0,309410.24979325,0.4971866247041654,-0.05996503440234825,0.4848167553872182,0.0200777892023325,-0.004093270748853683,0.01708235964179039,0.02153131738305092,0.0004918575286865234,0.009125471115112305,2,0.2397179007530212,0.03082645125687122,0.23176509141922,0.9422684907913208,-0.05302289500832558,-0.4660462439060211,-0.8831701278686523,23.23934173583984,44.35295104980469,15.5919189453125,0,2
1562614146.835634,150,0,309410.28476625,0.4983807836191804,-0.06040638496785333,0.4856516915528367,0.02158700674772263,0.007509872317314148,0.03695235773921013,0.01255974918603897,0.002345263957977295,0.0101470947265625,2,0.2401424944400787,0.03086448833346367,0.2322381585836411,0.9420427083969116,-0.05338916927576065,-0.466784805059433,-0.8827579021453857,23.12694549560547,44.27273559570312,16.1251220703125,0,2
1562614146.862248,151,0,309410.31967925,0.4994357415898178,-0.06064784729748068,0.4865768786382311,0.04173643887042999,-0.004029860720038414,0.01217961870133877,0.005880527198314667,0.004125803709030151,0.01693469285964966,2,0.2405883073806763,0.03099161200225353,0.2326653450727463,0.9418193697929382,-0.05357612296938896,-0.4676027894020081,-0.8823135495185852,23.46805572509766,44.28053283691406,16.16024780273438,0,2
1562614146.917275,152,0,309410.35465225,0.4993556710996944,-0.06094000829343907,0.4864704911219264,-0.04617802798748016,-0.01715525425970554,0.004989714827388525,0.004859980195760727,-0.003460437059402466,0.005326271057128906,2,0.2405736297369003,0.03083127364516258,0.2325971871614456,0.941845178604126,-0.05383692681789398,-0.4675087630748749,-0.8823475241661072,23.49140167236328,44.40566253662109,15.73162841796875,0,2
1562614146.928254,153,0,309410.38959425,0.5001007951683725,-0.06153394391498738,0.4858016472757478,0.02584723755717278,0.01090533100068569,0.01428387872874737,0.001925058662891388,0.0100770890712738,0.009604215621948242,2,0.2403175681829453,0.03055855073034763,0.2329062074422836,0.9418430328369141,-0.05438018962740898,-0.4669173955917358,-0.8826273083686829,23.39652252197266,44.30611801147461,15.7955322265625,0,2
1562614146.960142,154,0,309410.42453725,0.4997745842169823,-0.06131086325398786,0.4860296805801771,-0.04323476552963257,-0.02386404946446419,-0.003935656510293484,0.0108766108751297,-0.006871730089187622,0.004825413227081299,2,0.2404035627841949,0.03065258264541626,0.2327693253755569,0.9418518543243408,-0.05417676642537117,-0.467119038105011,-0.882533073425293,23.51166534423828,44.28219604492188,16.12728881835938,0,2
1562614146.997265,155,0,309410.45948025,0.5000503636708241,-0.06231822674375383,0.4845201820131023,-0.003736139507964253,0.002887969836592674,0.003767563495784998,0.008942220360040665,0.004135489463806152,-0.001560211181640625,2,0.2398084700107574,0.03002467378973961,0.2328450232744217,0.9420051574707031,-0.05510962381958961,-0.4657838344573975,-0.8831808567047119,23.53789520263672,45.90981674194336,18.068359375,0,2
1562614147.025995,156,0,309410.4944811667,0.4990467144960117,-0.06094724654645424,0.4864561551548042,0.05647477507591248,0.02071724086999893,-0.03513500466942787,0.0191337950527668,0.0004640817642211914,0.01346534490585327,2,0.240572527050972,0.03078894689679146,0.232451468706131,0.9418827295303345,-0.05384371802210808,-0.4674960970878601,-0.8823537826538086,25.65044403076172,45.02824020385742,15.74969482421875,0,2
1562614147.071999,157,0,309410.5293931667,0.4987539036645393,-0.06076928984709009,0.4867718710019484,-0.02388441003859043,-0.007645963691174984,0.01186970621347427,0.02690212428569794,0.008922159671783447,0.02182650566101074,2,0.2407044768333435,0.03087645024061203,0.2323210835456848,0.9418783187866211,-0.05367773026227951,-0.4677751660346985,-0.8822159767150879,24.93671417236328,45.18206787109375,15.9833984375,0,2
1562614147.091892,158,0,309410.5643661667,0.499922449429332,-0.06171471762663359,0.4852584808167292,-0.03130912035703659,-0.01151974871754646,0.02978011593222618,0.01420075818896294,0.002699196338653564,-0.007516801357269287,2,0.2400865107774734,0.0303848460316658,0.2328245043754578,0.9419278502464294,-0.05455537885427475,-0.4664370119571686,-0.8828704357147217,26.06938934326172,44.17156982421875,14.24224853515625,0,2
1562614147.125838,159,0,309410.5993091667,0.4996185944927307,-0.06025475031016929,0.4870559222145443,0.1069474965333939,0.05474235862493515,-0.02940321527421474,-0.0006601177155971527,0.03195494413375854,0.002052664756774902,2,0.2407644540071487,0.03125785663723946,0.2327776998281479,0.9417377114295959,-0.05321578681468964,-0.46802619099617,-0.8821108341217041,26.69005584716797,44.31436157226562,14.5296630859375,0,2
1562614147.157986,160,0,309410.5993091667,0.4996185944927307,-0.06025475031016929,0.4870559222145443,0.1069474965333939,0.05474235862493515,-0.02940321527421474,-0.0006601177155971527,0.03195494413375854,0.002052664756774902,2,0.2407644540071487,0.03125785663723946,0.2327776998281479,0.9417377114295959,-0.05321578681468964,-0.46802619099617,-0.8821108341217041,26.69005584716797,44.31436157226562,14.5296630859375,0,2
1562614147.191749,161,0,309410.6342821667,0.498998706918581,-0.05931340103754882,0.4896439965330855,0.001134407240897417,-0.01907087862491608,0.01178025733679533,0.007820338010787964,0.04271262884140015,0.01082193851470947,2,0.2418786138296127,0.03194540366530418,0.2324858009815216,0.941501259803772,-0.05231340974569321,-0.4703117311000824,-0.8809484839439392,26.25321197509766,44.84964752197266,15.37033081054688,0,2
1562614147.243624,162,0,309410.6691941667,0.5024116339185463,-0.0630591773005023,0.4863278693452774,-0.07084161788225174,-0.06704001128673553,0.1192078441381454,-0.0004348903894424438,-0.008026570081710815,-0.01544487476348877,2,0.2407072186470032,0.03018350899219513,0.2337874323129654,0.9415372610092163,-0.05571084842085838,-0.4673826694488525,-0.8822979927062988,26.88794708251953,44.12948226928711,14.34378051757812,0,2
1562614147.258034,163,0,309410.7041671667,0.5035704524070395,-0.06275321828234154,0.4904089637804216,0.1962288469076157,0.06873862445354462,-0.05830008164048195,-0.01672515273094177,0.003425836563110352,0.0260695219039917,2,0.2425666153430939,0.03097501583397388,0.2341867387294769,0.940934956073761,-0.05532081797719002,-0.4709866940975189,-0.880403995513916,26.03871917724609,44.07210922241211,12.940185546875,0,2
1562614147.289703,164,0,309410.7391101667,0.4987411607410374,-0.05892225871449729,0.4902031690130484,-0.1613779664039612,0.01639840938150883,-0.1307081580162048,-0.002946782857179642,0.01372671127319336,0.008626222610473633,2,0.2420995235443115,0.03216724097728729,0.2323873937129974,0.9414612054824829,-0.05195333436131477,-0.4708051383495331,-0.8807061910629272,25.95145416259766,43.96018981933594,14.8642578125,0,2
1562614147.32377,165,0,309410.7740831667,0.4937506613364549,-0.0549937184755366,0.4853155785829344,-0.05796022713184357,0.0733749121427536,-0.1255455762147903,0.01269582286477089,0.07889127731323242,-0.002298235893249512,2,0.2394319921731949,0.03281836956739426,0.2307201474905014,0.9425302743911743,-0.04861895367503166,-0.4664875268936157,-0.8831905722618103,27.00072479248047,44.47432708740234,13.903564453125,0,2
1562614147.355632,166,0,309410.8089951667,0.4904694367770304,-0.05256314043567766,0.4845210465682102,-0.03976892679929733,-0.01964347250759602,-0.009342672303318977,0.04949047416448593,0.02833670377731323,-0.02799612283706665,2,0.2388334274291992,0.03347534686326981,0.2294973433017731,0.9429575800895691,-0.04649161174893379,-0.4657845795154572,-0.8836759924888611,26.85924530029297,45.23707580566406,14.5955810546875,0,2
1562614147.393826,167,0,309410.8439681667,0.495022069046306,-0.05545906509327099,0.4867907011452295,0.1710703372955322,0.006375610828399658,0.1424242109060287,0.01911163330078125,0.03979209065437317,0.005855381488800049,2,0.2401574701070786,0.0329313762485981,0.2312008291482925,0.9422240257263184,-0.04899174347519875,-0.4677917957305908,-0.8824798464775085,27.87291717529297,44.61843109130859,13.01168823242188,0,2
1562614147.421343,168,0,309410.8789111667,0.4993895173279339,-0.05909756488238021,0.4909516824439633,0.06805815547704697,-0.1012847721576691,0.09664382040500641,-0.01520316302776337,0.003416836261749268,-0.003210067749023438,2,0.2424604594707489,0.03225548565387726,0.2326385229825974,0.9413032531738281,-0.05208690091967583,-0.4714653789997101,-0.8803450465202332,28.14379119873047,44.15083312988281,14.12619018554688,0,2
1562614147.47164,169,0,309410.9138841667,0.500828912334658,-0.06101234250567252,0.4916804134265276,0.0281373169273138,0.02613895200192928,-0.009520602412521839,-0.04345854371786118,0.03061085939407349,0.002371907234191895,2,0.2430020421743393,0.03161910176277161,0.2330513298511505,0.9410829544067383,-0.05375150218605995,-0.4721079170703888,-0.8799004554748535,27.51349639892578,43.78498077392578,14.5093994140625,0,2
1562614147.487345,170,0,309410.9487961667,0.4981087262107898,-0.05842483557386648,0.491778532246203,-0.03637728840112686,0.03386848419904709,-0.09236174076795578,-0.02257872000336647,0.02471601963043213,0.003057003021240234,2,0.2427907437086105,0.03251852095127106,0.2320810854434967,0.9413467049598694,-0.05147187411785126,-0.4721944034099579,-0.8799903988838196,28.53485870361328,43.45434951782227,13.44293212890625,0,2
1562614147.521292,171,0,309410.9837691667,0.4943442667918181,-0.05529418903050824,0.4883828647407719,-0.1200531050562859,0.03329221159219742,-0.08781933039426804,0.00749582052230835,0.02096790075302124,-0.02520167827606201,2,0.2408970594406128,0.03312175720930099,0.2308335900306702,0.9421185851097107,-0.04880502074956894,-0.4691984355449677,-0.8817431330680847,28.16185760498047,44.60245513916016,14.30459594726562,0,2
1562614147.55331,172,0,309411.0187121667,0.4922740181805456,-0.05383846767931122,0.4887312930703462,0.09218772500753403,0.03961586952209473,-0.05209654197096825,0.01026032119989395,0.06561815738677979,-0.01633810997009277,2,0.2409274578094482,0.03360055014491081,0.2300188839435577,0.942293107509613,-0.04751259461045265,-0.4695060849189758,-0.881649911403656,28.49297332763672,44.14430236816406,13.07644653320312,0,2
1562614147.587218,173,0,309411.0536541667,0.4913650648647503,-0.0526502507825942,0.4892580996345345,-0.0700625479221344,-0.03376355767250061,0.0108631793409586,0.02752390503883362,0.04670539498329163,-0.01508015394210815,2,0.2410536706447601,0.03411470353603363,0.2297116965055466,0.9423172473907471,-0.04645194858312607,-0.4699711501598358,-0.8814586400985718,29.30246734619141,44.4858512878418,12.77499389648438,0,2
1562614147.632518,174,0,309411.0885971667,0.4943445116749525,-0.05561678289878043,0.4869697253092142,0.01730965822935104,-0.003864593803882599,0.0781647115945816,0.005330394953489304,0.04173627495765686,-0.02425026893615723,2,0.2402708679437637,0.03279753029346466,0.2308550477027893,0.9422845840454102,-0.0491262711584568,-0.4679500162601471,-0.8823884725570679,28.25162506103516,44.93939208984375,13.39404296875,0,2
1562614147.653657,175,0,309411.1235701667,0.4951456095435869,-0.05492293946884281,0.4904426486658991,0.1159936115145683,-0.004427197389304638,-0.008468087762594223,-0.003306984901428223,0.02898374199867249,0.007539510726928711,2,0.2418075352907181,0.03364453837275505,0.2311680316925049,0.9417847990989685,-0.04842451587319374,-0.4710164070129395,-0.88079434633255,29.31757354736328,44.35121917724609,10.70404052734375,0,2
1562614147.685556,176,0,309411.1584821667,0.4947376490919023,-0.05509739306041166,0.4892677139059692,-0.1033717021346092,-0.002747027203440666,-0.0001113879261538386,-0.01650457084178925,0.03981679677963257,-0.007815837860107422,2,0.2412831336259842,0.0333697646856308,0.231004923582077,0.9419690370559692,-0.04860861226916313,-0.4699796438217163,-0.8813378214836121,28.86461639404297,45.00910186767578,11.32833862304688,0,2
1562614147.71905,177,0,309411.1584821667,0.4947376490919023,-0.05509739306041166,0.4892677139059692,-0.1033717021346092,-0.002747027203440666,-0.0001113879261538386,-0.01650457084178925,0.03981679677963257,-0.007815837860107422,2,0.2412831336259842,0.0333697646856308,0.231004923582077,0.9419690370559692,-0.04860861226916313,-0.4699796438217163,-0.8813378214836121,28.86461639404297,45.00910186767578,11.32833862304688,0,2
1562614147.750972,178,0,309411.1934551667,0.4939377804355129,-0.05491833585552323,0.4880930327631321,0.03987546637654305,-0.01390780135989189,-0.03151831403374672,-0.01168844103813171,0.050191730260849,-0.009544551372528076,2,0.2407243847846985,0.03321456536650658,0.2306996881961823,0.9421921968460083,-0.04848107323050499,-0.4689424633979797,-0.8818971514701843,28.99466705322266,44.46731567382812,10.5667724609375,0,2
1562614147.801411,179,0,309411.2283981667,0.4930733141509404,-0.05423010632623603,0.4883576010316187,-0.02943979389965534,0.001527361571788788,0.002609004266560078,-0.007816962897777557,0.04778596758842468,-0.01972150802612305,2,0.2407836765050888,0.03346692025661469,0.2303640693426132,0.9422502517700195,-0.04786738753318787,-0.4691761136054993,-0.8818063735961914,29.87551116943359,45.28398132324219,10.57562255859375,0,2
1562614147.817042,180,0,309411.2633711667,0.4941546363763446,-0.05497416739120543,0.4881251794893472,0.0352296344935894,0.01123322919011116,0.02192122489213943,-0.02041377872228622,0.0632815957069397,-0.02007561922073364,2,0.2407422959804535,0.03321826830506325,0.2307937443256378,0.9421645402908325,-0.0485294833779335,-0.4689708352088928,-0.8818793892860413,30.32846832275391,45.9974365234375,10.41058349609375,0,2
1562614147.852599,181,0,309411.2982831667,0.494214310204351,-0.05396262700659724,0.4887460721827172,0.004864486400038004,0.008862236514687538,-0.01060941442847252,-0.01775237172842026,0.05867332220077515,-0.01401638984680176,2,0.2409160286188126,0.03377759084105492,0.230917364358902,0.9420698881149292,-0.04762168601155281,-0.4695191383361816,-0.8816370964050293,30.97086334228516,45.3780517578125,9.93170166015625,0,2
1562614147.882957,182,0,309411.3332561667,0.4938840648782469,-0.0541180359924105,0.486989556161689,-0.06529687345027924,0.01268222741782665,-0.008260613307356834,-0.01691441237926483,0.05397623777389526,-0.03561568260192871,2,0.2401148527860641,0.03345080092549324,0.2308172881603241,0.9423105120658875,-0.04780323430895805,-0.4679675400257111,-0.8824518322944641,30.73000335693359,45.52787780761719,10.49667358398438,0,2
1562614147.916769,183,0,309411.3681991667,0.4926253423400147,-0.05138547258829588,0.486324361147515,0.01717514172196388,0.08002103865146637,-0.05030738189816475,-0.008113570511341095,0.05189204216003418,-0.02986693382263184,2,0.2395085990428925,0.03450660407543182,0.2305796146392822,0.9424850344657898,-0.04540768638253212,-0.4673795700073242,-0.8828898668289185,31.31272125244141,44.78566741943359,8.89251708984375,0,2
1562614147.956883,184,0,309411.4031721667,0.4901612441507432,-0.04843351499247275,0.4865409318348433,-0.01300468947738409,0.03978709876537323,-0.06091265380382538,0.01368526369333267,0.05678358674049377,-0.008933305740356445,2,0.2393138259649277,0.03562906384468079,0.2297627776861191,0.9426922202110291,-0.04279633611440659,-0.4675710201263428,-0.8829189538955688,31.52283477783203,46.28536987304688,10.6739501953125,0,2
1562614147.982709,185,0,309411.4380841667,0.4890075838727253,-0.04805638158782708,0.4852900887689799,-0.02968358248472214,-0.01668307557702065,-0.01002749986946583,0.01760658621788025,0.06473976373672485,-0.01681679487228394,2,0.238703191280365,0.03551840409636497,0.2293146848678589,0.9429601430892944,-0.04249141365289688,-0.4664649665355682,-0.8835184574127197,32.21485137939453,46.45229339599609,11.037353515625,0,2
1562614148.033032,186,0,309411.4730571667,0.4895687821570541,-0.04810171224642815,0.4851519720555411,0.02138455025851727,0.02181719057261944,0.0216224379837513,0.0005599558353424072,0.0591852068901062,-0.03678905963897705,2,0.238633468747139,0.03554736450314522,0.2295794188976288,0.9429123997688293,-0.04253456369042397,-0.4663428068161011,-0.8835809230804443,32.01430511474609,46.58134841918945,10.19082641601562,0,2
1562614148.048446,187,0,309411.507993125,0.4905540447807382,-0.04787671198748381,0.4875150618115094,0.1005813702940941,0.0204070471227169,0.01268604211509228,-0.01676666736602783,0.06779304146766663,-0.02384626865386963,2,0.2397005259990692,0.03605597093701363,0.2299750447273254,0.9425259828567505,-0.04228289797902107,-0.4684318900108337,-0.8824872374534607,31.72493743896484,45.96040344238281,9.86419677734375,0,2
1562614148.080452,188,0,309411.542966125,0.490764053781463,-0.04725300956459159,0.4894270424350971,0.02041063271462917,0.0007126796990633011,0.004342847503721714,-0.02032054215669632,0.07075053453445435,-0.009107887744903564,2,0.2405232489109039,0.03660564869642258,0.2300713658332825,0.9422715902328491,-0.04169009998440742,-0.4701202809810638,-0.8816171884536743,32.32056427001953,46.04522705078125,8.855865478515625,0,2
1562614148.114538,189,0,309411.577878125,0.4908773599960375,-0.04797102741800633,0.4873309229858004,-0.07639575004577637,-0.01191547978669405,0.003236892633140087,-0.02551399171352386,0.06706565618515015,-0.03023374080657959,2,0.2396190464496613,0.03602806478738785,0.2301235944032669,0.9425114393234253,-0.0423702672123909,-0.4682691991329193,-0.8825693726539612,33.06006622314453,47.09680938720703,9.6944580078125,0,2
1562614148.146382,190,0,309411.612851125,0.4903519242311634,-0.04696813335478522,0.4869547149199338,0.06053051725029945,0.03498783335089684,-0.03203824535012245,-0.02186030149459839,0.07915347814559937,-0.02729940414428711,2,0.2393364161252975,0.03639242425560951,0.2300112694501877,0.9425966739654541,-0.04149338975548744,-0.4679367542266846,-0.8827873468399048,33.38030242919922,45.60921096801758,8.6710205078125,0,2
1562614148.200576,191,0,309411.647794125,0.4882846277923757,-0.04435434297294438,0.4874377393605147,-0.02812962979078293,0.05287283658981323,-0.0462239645421505,-0.008541077375411987,0.07335546612739563,-0.02336126565933228,2,0.2393014281988144,0.03743505850434303,0.2293303459882736,0.9427306652069092,-0.03917580470442772,-0.4683635830879211,-0.8826668858528137,32.55200958251953,46.33531951904297,9.97265625,0,2
1562614148.212297,192,0,309411.682737125,0.4869473071720976,-0.042000624568979,0.4858700432095485,-0.01355989743024111,0.04629962146282196,-0.03476195782423019,0.002440020442008972,0.0775984525680542,-0.02552855014801025,2,0.2383199036121368,0.03819745406508446,0.2290424555540085,0.9430186152458191,-0.03712893277406693,-0.4669778943061829,-0.8834891319274902,34.63385772705078,46.60112380981445,8.540496826171875,0,2
1562614148.246247,193,0,309411.717679125,0.4853412202135338,-0.04019995208051514,0.4860751078385627,0.01804846525192261,0.01738861203193665,-0.0270813312381506,0.007068462669849396,0.07771909236907959,-0.02587932348251343,2,0.2382413446903229,0.0388796404004097,0.2284917384386063,0.9431441426277161,-0.03553414717316628,-0.4671592116355896,-0.8834588527679443,34.65287017822266,47.51728057861328,8.666107177734375,0,2
1562614148.278345,194,0,309411.717679125,0.4853412202135338,-0.04019995208051514,0.4860751078385627,0.01804846525192261,0.01738861203193665,-0.0270813312381506,0.007068462669849396,0.07771909236907959,-0.02587932348251343,2,0.2382413446903229,0.0388796404004097,0.2284917384386063,0.9431441426277161,-0.03553414717316628,-0.4671592116355896,-0.8834588527679443,34.65287017822266,47.51728057861328,8.666107177734375,0,2
1562614148.312361,195,0,309411.752652125,0.4857793518275054,-0.04039818049186872,0.4863144372978245,0.01796866208314896,-0.002531887963414192,0.02949538826942444,0.001166321337223053,0.08324107527732849,-0.02967566251754761,2,0.2383680492639542,0.03886684030294418,0.2286655157804489,0.9430705904960632,-0.03570475801825523,-0.4673708081245422,-0.883340060710907,35.35472869873047,45.89020538330078,6.328277587890625,0,2
1562614148.357701,196,0,309411.787565125,0.4871531476631871,-0.04112025182887212,0.4871291398251185,0.04605703055858612,-0.001480180770158768,0.03019514866173267,-0.01102796941995621,0.07941520214080811,-0.0279010534286499,2,0.2388071864843369,0.03878742828965187,0.2291956394910812,0.9428340196609497,-0.03632691875100136,-0.4680908918380737,-0.8829333186149597,34.27759552001953,46.4066047668457,8.02984619140625,0,2
1562614148.378213,197,0,309411.822538125,0.4875059690579757,-0.04093373099412863,0.4880182609680315,0.01645760051906109,0.01055014878511429,-0.002824013121426105,-0.02118920534849167,0.08073598146438599,-0.02480161190032959,2,0.2391970008611679,0.03902371600270271,0.2293497771024704,0.9426879286766052,-0.03614518418908119,-0.4688764214515686,-0.8825238943099976,34.73189544677734,45.95124816894531,6.391693115234375,0,2
1562614148.409981,198,0,309411.857480125,0.4872633737211404,-0.04079913634080624,0.4873252259275246,-0.00327494740486145,0.007501574233174324,-0.0106261158362031,-0.02309545129537582,0.08006167411804199,-0.03313875198364258,2,0.2388604432344437,0.03897538408637047,0.2292783558368683,0.9427926540374756,-0.03603964671492577,-0.4682641625404358,-0.8828532099723816,34.01470184326172,46.89379119873047,7.570281982421875,0,2
1562614148.44407,199,0,309411.892453125,0.4860465428066497,-0.03963432209322354,0.487512048368467,0.009887794032692909,0.002752672880887985,-0.0324140340089798,-0.009571962058544159,0.08387383818626404,-0.02454835176467896,2,0.238838717341423,0.03940144553780556,0.2288366109132767,0.9428878426551819,-0.03500779718160629,-0.4684292376041412,-0.882807195186615,34.79811859130859,46.08853149414062,4.695892333984375,0,2
1562614148.475937,200,0,309411.927366125,0.4861460168601355,-0.04069553533392668,0.4868738217401173,-0.01482666004449129,-0.01953664794564247,0.02298476547002792,-0.008530005812644958,0.09058746695518494,-0.03455626964569092,2,0.2386580258607864,0.03883698210120201,0.2287813872098923,0.9429703950881958,-0.03595678135752678,-0.4678652584552765,-0.8830680847167969,33.41110992431641,47.85790634155273,5.967926025390625,0,2
1562614148.517148,201,0,309411.962339125,0.4871900179775196,-0.040959896250103,0.4869644721177007,0.02968152798712254,0.004531122744083405,0.02540826983749866,-0.01572898030281067,0.08975213766098022,-0.02679574489593506,2,0.2387106418609619,0.03884774819016457,0.2292385250329971,0.9428456425666809,-0.03618849068880081,-0.4679453670978546,-0.8830161690711975,34.03955841064453,47.79666137695312,5.25323486328125,0,2
1562614148.541809,202,0,309411.997281125,0.4880403416021564,-0.04204025861113127,0.486875806017146,-0.02110714092850685,-0.02738899923861027,0.02509091980755329,-0.01857128739356995,0.08906343579292297,-0.0268549919128418,2,0.2387764453887939,0.0384293757379055,0.229513868689537,0.9427790641784668,-0.03714418783783913,-0.4678670167922974,-0.8830179572105408,33.78122711181641,47.56032562255859,5.529449462890625,0,2
1562614148.597818,203,0,309412.032254125,0.4891360706849472,-0.04348321078716206,0.4860432638668141,0.007444928865879774,-0.02263576164841652,0.02581045031547546,-0.01926197111606598,0.08493891358375549,-0.02989232540130615,2,0.2385298609733582,0.03778014332056046,0.2298908084630966,0.9427759647369385,-0.03843522444367409,-0.4671310484409332,-0.8833523392677307,33.95719146728516,47.92616271972656,3.446746826171875,0,2
1562614148.608119,204,0,309412.067167125,0.4899764606399933,-0.04409071148810487,0.4860627756160719,0.002185721416026354,0.006135959178209305,0.01305162254720926,-0.0204949676990509,0.08582594990730286,-0.03286993503570557,2,0.2385930866003036,0.03759638220071793,0.2302137166261673,0.9426884651184082,-0.03897145017981529,-0.4671483039855957,-0.8833196759223938,34.00925445556641,47.93212127685547,3.464202880859375,0,2
1562614148.641643,205,0,309412.102140125,0.4904563410204936,-0.04439541124564878,0.4860350084722475,0.01883010379970074,-0.007812080904841423,0.004901368170976639,-0.01543357968330383,0.0932324230670929,-0.02528530359268188,2,0.2386061251163483,0.03750668466091156,0.2304046601057053,0.9426420331001282,-0.03924117237329483,-0.4671237468719482,-0.8833207488059998,35.82044219970703,48.34560012817383,2.942169189453125,0,2
1562614148.673565,206,0,309412.137082125,0.4908880773962314,-0.04470750494139689,0.4854788988531949,-0.01695947721600533,0.004852848127484322,0.01350515894591808,-0.01093444228172302,0.09156507253646851,-0.03225529193878174,2,0.2383726388216019,0.03734409436583519,0.2305930107831955,0.942661464214325,-0.03952845185995102,-0.4666319787502289,-0.8835678100585938,36.52945709228516,47.47454833984375,1.046417236328125,0,2
1562614148.708132,207,0,309412.172055125,0.491713169930525,-0.04575901754123917,0.4845747664641336,-0.00264307064935565,-0.02632240578532219,0.02028968930244446,-0.01221246272325516,0.09132859110832214,-0.04759222269058228,2,0.2380536794662476,0.03683766722679138,0.2308926731348038,0.9426887035369873,-0.04047679528594017,-0.4658321142196655,-0.8839468359947205,35.27378082275391,48.49720764160156,3.78271484375,0,2
1562614148.756997,208,0,309412.206968125,0.4926783103261199,-0.04634061221744838,0.4853892374970414,0.05128983035683632,0.009621748700737953,0.02694634348154068,-0.01479747891426086,0.09330159425735474,-0.03931361436843872,2,0.2384858876466751,0.03677702322602272,0.2312456220388412,0.9424952268600464,-0.04097329825162888,-0.4665526747703552,-0.883543848991394,36.95450592041016,47.3763427734375,2.232879638671875,0,2
1562614148.773656,209,0,309412.241941125,0.493921055116121,-0.0472673872212154,0.4858322767521163,0.002721958328038454,-0.03545654565095901,0.03027817234396935,-0.0177866593003273,0.08893319964408875,-0.03318065404891968,2,0.2387785017490387,0.03654228150844574,0.2317027300596237,0.9423180818557739,-0.04178235679864883,-0.4669444859027863,-0.8832989931106567,37.16149139404297,47.95489501953125,4.87066650390625,0,2
1562614148.805438,210,0,309412.276883125,0.4952604792303835,-0.0486015761511483,0.4849465785698634,-0.006590567994862795,-0.007735648192465305,0.03272714093327522,-0.02455142885446548,0.08817917108535767,-0.04072797298431396,2,0.2384929209947586,0.03596583381295204,0.2322106510400772,0.9422875046730042,-0.04298087954521179,-0.4661611020565033,-0.8836551904678345,37.72296905517578,48.31565093994141,4.749542236328125,0,2
1562614148.839386,211,0,309412.311826125,0.4960451032621935,-0.04918828413137372,0.4848966694628691,0.01249082386493683,-0.006718335673213005,0.01359581854194403,-0.02776947617530823,0.07844564318656921,-0.04022657871246338,2,0.2385235726833344,0.03577690944075584,0.2325123846530914,0.9422125220298767,-0.04350046440958977,-0.4661169350147247,-0.8836530447006226,38.09793853759766,46.88021087646484,2.34381103515625,0,2
1562614148.871591,212,0,309412.311826125,0.4960451032621935,-0.04918828413137372,0.4848966694628691,0.01249082386493683,-0.006718335673213005,0.01359581854194403,-0.02776947617530823,0.07844564318656921,-0.04022657871246338,2,0.2385235726833344,0.03577690944075584,0.2325123846530914,0.9422125220298767,-0.04350046440958977,-0.4661169350147247,-0.8836530447006226,38.09793853759766,46.88021087646484,2.34381103515625,0,2
1562614148.909431,213,0,309412.346769125,0.4968391700937023,-0.04965971189648808,0.4851250769961109,0.01457059197127819,0.002212062478065491,0.02211176790297031,-0.02570964395999908,0.09296062588691711,-0.03046602010726929,2,0.2386714816093445,0.03567743673920631,0.2328208088874817,0.9421027302742004,-0.04391175508499146,-0.4663189947605133,-0.883526086807251,37.43289947509766,48.38003540039062,4.58782958984375,0,2
1562614148.937248,214,0,309412.381742125,0.4981173487023241,-0.05094302120434641,0.4840095881685522,-0.03664802387356758,-0.01946957781910896,0.03576045855879784,-0.02300649881362915,0.08315259218215942,-0.04410260915756226,2,0.2382746338844299,0.03508882969617844,0.2333160191774368,0.9421027302742004,-0.04507201537489891,-0.4653319418430328,-0.8839879631996155,38.51676177978516,47.12558746337891,1.9764404296875,0,2
1562614148.979433,215,0,309412.416654125,0.4993638331623527,-0.05127235332877709,0.483648482412552,0.03374859690666199,0.02794084511697292,0.0177453737705946,-0.03083924949169159,0.09049239754676819,-0.04585683345794678,2,0.2381216734647751,0.0350378230214119,0.2338789105415344,0.9420038461685181,-0.04537174850702286,-0.4650122821331024,-0.8841408491134644,37.22074127197266,47.58847427368164,3.238677978515625,0,2
1562614149.003541,216,0,309412.451627125,0.4993561571567011,-0.05082406998403859,0.4842074972350944,-0.005782846361398697,-0.002473294734954834,-0.01052571460604668,-0.01910340785980225,0.09115591645240784,-0.03131097555160522,2,0.2383318394422531,0.03531673923134804,0.2339054495096207,0.9419336318969727,-0.04496218264102936,-0.4655071198940277,-0.8839012980461121,36.84534454345703,47.97053527832031,4.043975830078125,0,2
1562614149.037014,217,0,309412.48657725,0.4993607434726608,-0.05086275196170575,0.4820082837718332,-0.05161365121603012,0.004642704501748085,0.003838094882667065,-0.01710980385541916,0.09178429841995239,-0.03613507747650146,2,0.2373037040233612,0.0350288599729538,0.2339942902326584,0.9421818256378174,-0.0450483113527298,-0.4635595679283142,-0.8849198818206787,38.57865142822266,46.5494270324707,0.777587890625,0,2
1562614149.068919,218,0,309412.52155025,0.4991673792614039,-0.0505575646606388,0.4814272783083682,0.009003091603517532,0.004801183938980103,-0.007050729356706142,-0.009020097553730011,0.08716404438018799,-0.03923952579498291,2,0.2369985431432724,0.03507833555340767,0.2339634299278259,0.9422644376754761,-0.04479184746742249,-0.4630447030067444,-0.8852024078369141,37.99504852294922,47.11607360839844,1.760284423828125,0,2
1562614149.102838,219,0,309412.55646225,0.4993850680312449,-0.05065325178310279,0.4810429994537521,0.002310832496732473,-0.001891627907752991,0.01973663456737995,-0.01408371329307556,0.08560222387313843,-0.04327738285064697,2,0.2368254661560059,0.03501184284687042,0.2340705543756485,0.9422837495803833,-0.04488555341959,-0.462704062461853,-0.8853757381439209,37.97628021240234,46.75704956054688,2.02801513671875,0,2
1562614149.140884,220,0,309412.59143525,0.4999572885690315,-0.05099006063831767,0.4815503700413213,0.01810551062226295,-0.0002095606178045273,0.01130655128508806,-0.01686408370733261,0.08573207259178162,-0.03473836183547974,2,0.2370931357145309,0.03498333320021629,0.2342792004346848,0.942165732383728,-0.04517178609967232,-0.4631537795066833,-0.885125994682312,38.40229034423828,45.83146667480469,0.86297607421875,0,2
1562614149.168833,221,0,309412.62637825,0.5007186952675222,-0.05189928619987145,0.4804705305012027,-0.02474277839064598,-0.0133794154971838,0.02872289530932903,-0.02305120974779129,0.07978370785713196,-0.04944741725921631,2,0.2366794049739838,0.03451219946146011,0.234575092792511,0.9422135353088379,-0.04600246250629425,-0.4621964693069458,-0.8855835199356079,38.41059112548828,45.85422515869141,1.446746826171875,0,2
1562614149.200858,222,0,309412.66135125,0.5014498322619303,-0.05163529887596667,0.4812700030858816,0.05167625471949577,0.02334050461649895,-3.718375228345394e-05,-0.02710387855768204,0.09025934338569641,-0.0347447395324707,2,0.2370111346244812,0.03482175245881081,0.2349174469709396,0.9420334100723267,-0.04574959352612495,-0.4629052877426147,-0.885226309299469,38.57152557373047,46.12255859375,1.07537841796875,0,2
1562614149.234567,223,0,309412.69626325,0.5016442712344278,-0.05195425739625213,0.4804327055204872,-0.04452964290976524,-0.02390718087553978,0.0181302148848772,-0.02056011557579041,0.08095580339431763,-0.03505873680114746,2,0.2366521209478378,0.03459117189049721,0.2350061982870102,0.942110002040863,-0.04605205357074738,-0.4621629416942596,-0.8855984210968018,39.28572845458984,45.42546844482422,-0.34942626953125,0,2
1562614149.266825,224,0,309412.73123625,0.50254801466523,-0.05276850115816276,0.4793037060130865,4.44827601313591e-05,-0.001562461256980896,0.01990840770304203,-0.02006983011960983,0.08892509341239929,-0.03723037242889404,2,0.2362022548913956,0.03417487815022469,0.2353828847408295,0.9421440362930298,-0.04680062085390091,-0.4611614644527435,-0.8860811591148376,38.60710906982422,45.74281311035156,0.733001708984375,0,2
1562614149.318492,225,0,309412.76617925,0.5035824007858984,-0.05380267864816162,0.4794120615874268,0.01030079647898674,-0.01511021889746189,0.03274749219417572,-0.01535536348819733,0.08629003167152405,-0.03313314914703369,2,0.2363573461771011,0.03382336348295212,0.2357433885335922,0.9420276880264282,-0.04771427437663078,-0.4612576067447662,-0.8859823942184448,38.63648223876953,45.86671447753906,0.307037353515625,0,2
1562614149.332688,226,0,309412.80115225,0.5048839979484333,-0.05475224888806574,0.4784809537744506,-0.02037966810166836,-0.01203824579715729,0.03821057453751564,-0.0260859951376915,0.08071690797805786,-0.03793776035308838,2,0.2360104471445084,0.03341412916779518,0.2362837195396423,0.9419939517974854,-0.04857903718948364,-0.4604312479496002,-0.8863651156425476,38.92885589599609,44.79635620117188,-1.9228515625,0,2
1562614149.366634,227,0,309412.83606425,0.5057474644398282,-0.05552592586143381,0.4781211572029164,0.008313922211527824,0.005549250170588493,0.01002238877117634,-0.02810609340667725,0.07946619391441345,-0.04064822196960449,2,0.2359186708927155,0.03310679271817207,0.2366144210100174,0.9419448375701904,-0.04927397519350052,-0.4601118266582489,-0.8864926695823669,39.92194366455078,45.37849426269531,-1.3876953125,0,2
1562614149.398524,228,0,309412.87103725,0.5050533917093686,-0.05502560618976852,0.4776315319376919,-0.01669726893305779,-0.001549920067191124,-0.02364063635468483,-0.02034390717744827,0.08363902568817139,-0.03507322072982788,2,0.2356412261724472,0.03319964185357094,0.2363673597574234,0.9420729279518127,-0.04884282127022743,-0.4596770703792572,-0.8867419958114624,39.74411773681641,45.92061614990234,0.35980224609375,0,2
1562614149.432527,229,0,309412.90598025,0.5042097150860801,-0.05461776923933567,0.4759225621950762,-0.05612574145197868,0.00834851898252964,-0.01501750387251377,-0.01574989035725594,0.07996687293052673,-0.05006188154220581,2,0.2348046749830246,0.03307997807860374,0.2360902428627014,0.9423555135726929,-0.04852398484945297,-0.4581586718559265,-0.8875449299812317,40.28313446044922,45.35115432739258,0.258697509765625,0,2
1562614149.465763,230,0,309412.90598025,0.5042097150860801,-0.05461776923933567,0.4759225621950762,-0.05612574145197868,0.00834851898252964,-0.01501750387251377,-0.01574989035725594,0.07996687293052673,-0.05006188154220581,2,0.2348046749830246,0.03307997807860374,0.2360902428627014,0.9423555135726929,-0.04852398484945297,-0.4581586718559265,-0.8875449299812317,40.28313446044922,45.35115432739258,0.258697509765625,0,2
1562614149.498348,231,0,309412.94092225,0.5031899377742269,-0.05378536093310734,0.4763625463588694,0.06451205164194107,0.02413440681993961,-0.04431317001581192,-0.007314853370189667,0.08684372901916504,-0.03943550586700439,2,0.2349300682544708,0.0334070660173893,0.2356889545917511,0.9424131512641907,-0.04777432605624199,-0.4585497379302979,-0.8873836398124695,40.73636627197266,45.1764030456543,-0.15142822265625,0,2
1562614149.531629,232,0,309412.97586525,0.5018845704092149,-0.05268477400302448,0.4772179306073474,-0.005791032686829567,-0.0005664248019456863,-0.02793672494590282,-0.004972003400325775,0.09514278173446655,-0.0294763445854187,2,0.2352242171764374,0.0338781550526619,0.2351673990488052,0.9424532055854797,-0.04677698388695717,-0.4593096971511841,-0.8870436549186707,41.35207366943359,45.20073699951172,0.628692626953125,0,2
1562614149.564309,233,0,309413.01083825,0.5021781043631566,-0.05375824763159772,0.4762058928434241,0.001718220766633749,-0.01208911184221506,0.01416255999356508,-0.01017320156097412,0.08864223957061768,-0.03757715225219727,2,0.2348701655864716,0.0332815945148468,0.2352218925952911,0.9425492286682129,-0.04775412753224373,-0.4584105014801025,-0.8874566555023193,41.15050506591797,46.12778091430664,2.44970703125,0,2
1562614149.596294,234,0,309413.04575025,0.5024060253960982,-0.05366158518888969,0.4774084574851035,0.07713421434164047,0.001238932833075523,-0.00340528367087245,-0.02325872331857681,0.07341599464416504,-0.03987926244735718,2,0.2354197949171066,0.03350279107689857,0.2352901995182037,0.9423871636390686,-0.04763874039053917,-0.4594789445400238,-0.8869101405143738,42.39714813232422,45.61740112304688,2.719146728515625,0,2
1562614149.634063,235,0,309413.08072325,0.5014407026316269,-0.0529451374345077,0.4793126947823499,0.02162504009902477,0.01487006619572639,-0.0246200505644083,-0.02615408599376678,0.08925405144691467,-0.02154171466827393,2,0.2362461090087891,0.03396199271082878,0.234839990735054,0.9422761797904968,-0.04695691540837288,-0.461169421672821,-0.8860687017440796,42.12928009033203,44.75860595703125,1.284515380859375,0,2
1562614149.66212,236,0,309413.11566625,0.5008937528202286,-0.05295386985506706,0.477304644550596,-0.054001335054636,-0.0167365949600935,-0.003499331651255488,-0.02742484956979752,0.07845073938369751,-0.03848576545715332,2,0.2353132665157318,0.03364548832178116,0.234665185213089,0.9425645470619202,-0.04701357334852219,-0.4593867361545563,-0.8869913220405579,41.06204986572266,44.66818618774414,-0.30279541015625,0,2
1562614149.712471,237,0,309413.15063925,0.4993681841155891,-0.05160761076761069,0.4778107748200373,0.04260541871190071,0.0354677326977253,-0.06098049879074097,-0.01839416474103928,0.0869424045085907,-0.02808153629302979,2,0.2354191392660141,0.03416280448436737,0.2340835779905319,0.9426640868186951,-0.04580741003155708,-0.4598362445831299,-0.886821448802948,40.88715362548828,45.86335754394531,1.019775390625,0,2
1562614149.728027,238,0,309413.18555125,0.4979032230458708,-0.0507617525973427,0.4771172699819753,-0.03211638331413269,-0.005483677610754967,-0.01479014102369547,-0.00782245397567749,0.08742427825927734,-0.02587801218032837,2,0.2350194603204727,0.03430410474538803,0.2335210740566254,0.942898154258728,-0.04507343843579292,-0.459220290184021,-0.8871781826019287,42.11582183837891,46.41935729980469,0.5877685546875,0,2
1562614149.762116,239,0,309413.22052425,0.4974647552104851,-0.05022648318995046,0.4759104632240252,-0.01203966699540615,0.007350364699959755,-0.01363088004291058,-0.005233719944953918,0.07833945751190186,-0.02896243333816528,2,0.2343972623348236,0.03435717150568962,0.2334265559911728,0.9430745244026184,-0.04462634399533272,-0.4581479132175446,-0.8877550363540649,43.16617584228516,44.96297454833984,0.168426513671875,0,2
1562614149.794076,240,0,309413.25546725,0.4971765295800954,-0.05034219000333186,0.4757772759101685,0.02149896696209908,0.006993481889367104,0.002604420064017177,-0.01005636155605316,0.0768323540687561,-0.03232455253601074,2,0.234353095293045,0.03425252810120583,0.2332825213670731,0.9431249499320984,-0.04473213478922844,-0.4580295383930206,-0.8878107666969299,43.06374359130859,44.88421630859375,-0.024200439453125,0,2
1562614149.827953,241,0,309413.29044025,0.4968276171345314,-0.04937098006778835,0.4761385549213697,-0.00768161378800869,0.001628804951906204,-0.01328549813479185,-0.006960801780223846,0.07037916779518127,-0.01981276273727417,2,0.2344156801700592,0.03471380844712257,0.2332170903682709,0.9431087374687195,-0.04386169463396072,-0.458350658416748,-0.8876884579658508,43.34917449951172,44.79684448242188,2.34283447265625,0,2
1562614149.872557,242,0,309413.32535225,0.4967051296889134,-0.05001316558748019,0.47447995413385,-0.03164755553007126,0.007627066224813461,0.002828714903444052,-0.01465266942977905,0.07598236203193665,-0.03885740041732788,2,0.233712837100029,0.03419382870197296,0.2331515550613403,0.9433183670043945,-0.0444696880877018,-0.4568759202957153,-0.8884181976318359,42.37708282470703,45.90811157226562,1.6590576171875,0,2
1562614149.893901,243,0,309413.36032525,0.4959594046194552,-0.04822005285088166,0.4756918516529295,0.04911849647760391,0.02755816467106342,-0.0380435436964035,-0.01172778755426407,0.08084607124328613,-0.02131295204162598,2,0.2340866923332214,0.03510034456849098,0.2329605370759964,0.9432394504547119,-0.04284986481070518,-0.4579536020755768,-0.8879427909851074,41.32013702392578,45.89068603515625,1.840240478515625,0,2
1562614149.92589,244,0,309413.39526825,0.495546778264736,-0.04845648797670485,0.4739447101386541,-0.07048448920249939,-0.009946870617568493,0.008327707648277283,-0.01164662837982178,0.07828280329704285,-0.02984720468521118,2,0.2332997620105743,0.03472753614187241,0.2328085601329803,0.9434857368469238,-0.04309849441051483,-0.4563997387886047,-0.8887304663658142,41.21047210693359,46.03901672363281,1.523895263671875,0,2
1562614149.959653,245,0,309413.43024125,0.4957942891714626,-0.04856693066309458,0.4737888985146378,0.06444425135850906,0.0002762079238891602,-0.005954838823527098,-0.01561896502971649,0.07764041423797607,-0.02991819381713867,2,0.2332350462675095,0.03468530625104904,0.2329187095165253,0.9434760808944702,-0.04320009797811508,-0.4562610983848572,-0.8887966871261597,41.53606414794922,46.45093536376953,2.07489013671875,0,2
1562614149.991867,246,0,309413.46515325,0.4955048308743028,-0.04847344448618119,0.4744826775312738,-0.02484307996928692,-0.01118553522974253,0.005228364374488592,-0.01406959444284439,0.07265874743461609,-0.0241580605506897,2,0.2335554957389832,0.03478023037314415,0.2327651679515839,0.9434311985969543,-0.04310166090726852,-0.4568783342838287,-0.8884843587875366,41.13486480712891,46.38828277587891,1.964263916015625,0,2
1562614150.0316,247,0,309413.46515325,0.4955048308743028,-0.04847344448618119,0.4744826775312738,-0.02484307996928692,-0.01118553522974253,0.005228364374488592,-0.01406959444284439,0.07265874743461609,-0.0241580605506897,2,0.2335554957389832,0.03478023037314415,0.2327651679515839,0.9434311985969543,-0.04310166090726852,-0.4568783342838287,-0.8884843587875366,41.13486480712891,46.38828277587891,1.964263916015625,0,2
1562614150.05767,248,0,309413.5001087917,0.4964185721787488,-0.05009134573920455,0.472407351698283,-0.03586451336741447,-0.02814265713095665,0.03271064162254333,-0.01990678906440735,0.07019856572151184,-0.03492498397827148,2,0.2327521145343781,0.0338701568543911,0.2330913990736008,0.9435824155807495,-0.04458646476268768,-0.4550312757492065,-0.8893585205078125,40.61966705322266,46.91011810302734,1.3157958984375,0,2
1562614150.092712,249,0,309413.5350517917,0.4966279177713969,-0.04995566625764986,0.4727647346409772,0.02358047664165497,0.01105289719998837,-0.006628527771681547,-0.0204172283411026,0.07175329327583313,-0.02836787700653076,2,0.232900857925415,0.03400224074721336,0.2331914901733398,0.9435161352157593,-0.04445767030119896,-0.4553495049476624,-0.8892020583152771,40.48218536376953,46.71359252929688,2.232635498046875,0,2
1562614150.124235,250,0,309413.5699947917,0.496572431178758,-0.05097952487539267,0.471732288355121,-0.06103772297501564,-0.02797302417457104,0.009480435401201248,-0.01845917105674744,0.0728161633014679,-0.03784710168838501,2,0.2325355410575867,0.0333864763379097,0.2330881208181381,0.9436537623405457,-0.045391995459795,-0.4544300436973572,-0.8896251320838928,40.63687896728516,46.56369781494141,3.356903076171875,0,2
1562614150.157436,251,0,309413.6049367917,0.4974331372155193,-0.05141355378901449,0.4708702399570512,0.02305031009018421,0.009521372616291046,0.00894146878272295,-0.01587031036615372,0.07541921734809875,-0.03248584270477295,2,0.2321663796901703,0.03317614272236824,0.2334789484739304,0.9436554312705994,-0.04579823091626167,-0.4536619782447815,-0.8899962306022644,40.43175506591797,46.61149597167969,2.401123046875,0,2
1562614150.19792,252,0,309413.6399097917,0.4975440960461253,-0.05206808959760656,0.4714364413120805,-0.003935986198484898,-0.0208908598870039,-0.004509298596531153,-0.01191286742687225,0.07549715042114258,-0.02273279428482056,2,0.2325072288513184,0.03294960781931877,0.2334320843219757,0.9435911178588867,-0.04636738076806068,-0.4541665017604828,-0.8897094130516052,40.78029632568359,45.8580322265625,0.37451171875,0,2
1562614150.223538,253,0,309413.6748227917,0.4984423441398061,-0.05308230024939547,0.4696956610508181,-0.0266068410128355,-0.01178178284317255,0.0270575974136591,-0.02082442864775658,0.07594212889671326,-0.03419804573059082,2,0.2317923307418823,0.03236167132854462,0.2338097244501114,0.9436938166618347,-0.04731158539652824,-0.4526149332523346,-0.8904500603675842,40.73523712158203,45.44018936157227,-0.63995361328125,0,2
1562614150.273797,254,0,309413.7097957917,0.4984821300953426,-0.05298290344372494,0.4700550703440008,0.04394190013408661,0.001694317907094955,-0.01808770932257175,-0.01333808526396751,0.06753504276275635,-0.02155393362045288,2,0.2319490909576416,0.03245734423398972,0.2338252067565918,0.9436482191085815,-0.04721445962786674,-0.4529353976249695,-0.8902922868728638,40.21352386474609,45.40330123901367,-1.35333251953125,0,2
1562614150.289385,255,0,309413.7447377917,0.498144833779225,-0.05308836677027234,0.4698486434220703,-0.02029375731945038,-0.01292294822633266,0.01454101875424385,-0.01503961533308029,0.06677088141441345,-0.0271875262260437,2,0.2318698018789291,0.03234311565756798,0.233662337064743,0.9437119364738464,-0.04731331020593643,-0.4527513384819031,-0.8903806209564209,40.15694427490234,45.37947082519531,-1.517791748046875,0,2
1562614150.321217,256,0,309413.7797107917,0.4984912820076718,-0.05298600103487836,0.4689605968587863,0.004793488886207342,0.01619738154113293,-0.0008894930360838771,-0.0218387059867382,0.06373476982116699,-0.03906428813934326,2,0.231434553861618,0.03232244774699211,0.2338742315769196,0.9437669515609741,-0.04724344238638878,-0.4519593417644501,-0.8907865881919861,39.43839263916016,45.73892974853516,-2.023529052734375,0,2
1562614150.355292,257,0,309413.8146237917,0.4972474533403058,-0.05126257113668766,0.4705816689917128,0.05542732030153275,0.03628053888678551,-0.03683780878782272,-0.01811914145946503,0.07458183169364929,-0.02160584926605225,2,0.2320160865783691,0.03319046646356583,0.2334206104278564,0.9437063932418823,-0.04567056149244308,-0.4534048140048981,-0.8901338577270508,39.84009552001953,46.17994689941406,-1.824951171875,0,2
1562614150.38767,258,0,309413.8495967917,0.4968190254056438,-0.05085572353168936,0.469346793858363,-0.07603318244218826,-0.01633020117878914,0.0100313313305378,-0.008245222270488739,0.060158371925354,-0.02063125371932983,2,0.2313947826623917,0.03318161144852638,0.2333157658576965,0.9438852071762085,-0.04533683881163597,-0.4523037970066071,-0.8907108902931213,40.14643096923828,46.71279144287109,-0.085357666015625,0,2
1562614150.432462,259,0,309413.8845387917,0.4970193210691004,-0.05144244314391581,0.4677123593776257,-0.009362387470901012,0.017129210755229,-0.007729093544185162,-0.01369579881429672,0.06420642137527466,-0.03591114282608032,2,0.2306909263134003,0.03272773325443268,0.2334088832139969,0.9440501928329468,-0.04589737579226494,-0.4508455097675323,-0.8914211988449097,39.78688812255859,46.71590423583984,-0.412872314453125,0,2
1562614150.452957,260,0,309413.9195127917,0.496566597291202,-0.05036416251655577,0.4691727162178844,0.0388152152299881,0.01736597530543804,-0.02610198967158794,-0.004163123667240143,0.07385805249214172,-0.01192444562911987,2,0.2312597632408142,0.03336312621831894,0.2332605570554733,0.9439254403114319,-0.04490295425057411,-0.4521485567092896,-0.8908116221427917,39.45746612548828,46.43944549560547,-0.574920654296875,0,2
1562614150.486947,261,0,309413.9544247917,0.4970582422313341,-0.0517616412488856,0.467105160785496,-0.07842753082513809,-0.04482974857091904,0.02544300816953182,-0.00285281240940094,0.07098796963691711,-0.0245591402053833,2,0.2304418087005615,0.03250716254115105,0.2334151268005371,0.9441171288490295,-0.04619606956839561,-0.4503034353256226,-0.8916797041893005,39.64624786376953,46.74435043334961,-0.8673095703125,0,2
1562614150.519008,262,0,309413.9893977917,0.4980632339739855,-0.05249961059425712,0.467298675926073,0.07412201166152954,0.006352746859192848,-0.001395434373989701,-0.01130787655711174,0.07828700542449951,-0.02246814966201782,2,0.2306027710437775,0.03229838609695435,0.233796551823616,0.9439906477928162,-0.04684951528906822,-0.4504762291908264,-0.8915583491325378,39.24056243896484,46.55367279052734,-1.351715087890625,0,2
1562614150.552905,263,0,309414.0243397917,0.498691813074039,-0.0536670453694827,0.4679634856121282,-0.01335206814110279,-0.04331735521554947,0.03159008175134659,-0.01202110946178436,0.06527045369148254,-0.02094638347625732,2,0.2310419380664825,0.03190163522958755,0.2339311689138412,0.9438634514808655,-0.04787424579262733,-0.4510696530342102,-0.8912038207054138,39.68561553955078,46.65470886230469,-1.1893310546875,0,2
1562614150.593825,264,0,309414.0243397917,0.498691813074039,-0.0536670453694827,0.4679634856121282,-0.01335206814110279,-0.04331735521554947,0.03159008175134659,-0.01202110946178436,0.06527045369148254,-0.02094638347625732,2,0.2310419380664825,0.03190163522958755,0.2339311689138412,0.9438634514808655,-0.04787424579262733,-0.4510696530342102,-0.8912038207054138,39.68561553955078,46.65470886230469,-1.1893310546875,0,2
1562614150.618761,265,0,309414.0593137917,0.4999586189260646,-0.05454363385217052,0.4667936241121434,0.009138485416769981,0.005450200289487839,0.01526503451168537,-0.02402734011411667,0.06665074825286865,-0.02050751447677612,2,0.2305742502212524,0.03149006143212318,0.234476238489151,0.9438562989234924,-0.04868417978286743,-0.4500252604484558,-0.89168781042099,39.02635955810547,46.10422897338867,-2.5692138671875,0,2
1562614150.6525,266,0,309414.0942257917,0.4989313258150265,-0.05413635493474543,0.4668380479679474,-0.01098425593227148,-0.013931754976511,-0.02720820717513561,-0.01377200707793236,0.05103495717048645,-0.02133166790008545,2,0.2305636256933212,0.03156931325793266,0.2340365052223206,0.9439654350280762,-0.04831992834806442,-0.4500649273395538,-0.8916875720024109,39.20235443115234,46.28330993652344,-2.600921630859375,0,2
1562614150.684711,267,0,309414.1291987917,0.4983937727725367,-0.05408331707099551,0.4655052435497036,-0.01655334793031216,-4.922784864902496e-05,0.006401066668331623,-0.004692718386650085,0.06563544273376465,-0.02233219146728516,2,0.229938805103302,0.03136849403381348,0.2338438332080841,0.9441722631454468,-0.04830501973628998,-0.4488743543624878,-0.8922883272171021,39.99399566650391,46.32632446289062,-3.291046142578125,0,2
1562614150.716679,268,0,309414.1641407917,0.4984561023512721,-0.05434886459147613,0.4655442749016608,0.006913741584867239,-0.003763811662793159,0.008394467644393444,-0.001877628266811371,0.06502950191497803,-0.02294242382049561,2,0.2299872487783432,0.03125510364770889,0.2338411211967468,0.9441648721694946,-0.04854100942611694,-0.4489092230796814,-0.8922579884529114,39.65238189697266,46.25801467895508,-3.69500732421875,0,2
1562614150.752141,269,0,309414.1990837917,0.4992691059773009,-0.05503091537698184,0.4650582810484006,-0.0008796863257884979,-0.01320472732186317,0.03569880500435829,-0.01126591116189957,0.05998635292053223,-0.02614521980285645,2,0.2298257201910019,0.030966741964221,0.2341665923595428,0.9441331028938293,-0.04916156083345413,-0.4484748840332031,-0.8924424052238464,39.33943939208984,45.93003082275391,-3.431732177734375,0,2
1562614150.782445,270,0,309414.2340267917,0.5005473092263772,-0.05571171393202768,0.4657606912726038,0.03439579159021378,0.004385421052575111,0.02611448802053928,-0.02231745794415474,0.05884519219398499,-0.02361029386520386,2,0.2302162051200867,0.03087908588349819,0.2346624433994293,0.9439176321029663,-0.04975156858563423,-0.4491025805473328,-0.8920939564704895,39.06539154052734,45.49613952636719,-4.83984375,0,2
1562614150.833147,271,0,309414.2689997917,0.500816380755694,-0.05572434961390272,0.4659119462630399,-0.009308693930506706,-0.004950243979692459,0.003215671982616186,-0.02627724781632423,0.06039959192276001,-0.01102936267852783,2,0.2302846908569336,0.03092280402779579,0.2347816824913025,0.9438697695732117,-0.04975905269384384,-0.449237734079361,-0.8920254707336426,35.78607940673828,44.99002838134766,-11.03964233398438,0,2
1562614150.848527,272,0,309414.3039117917,0.5009511834232337,-0.0562702113104353,0.4640688578639391,-0.04988288134336472,-0.007513005286455154,0.01475288812071085,-0.0236373208463192,0.05191391706466675,-0.02544331550598145,2,0.2294797450304031,0.03045274131000042,0.2348594814538956,0.9440617561340332,-0.05029245093464851,-0.4475903213024139,-0.892823338508606,38.22449493408203,46.12164688110352,-4.59429931640625,0,2
1562614150.882412,273,0,309414.3388847917,0.5006237307012539,-0.05558201927629099,0.4645663998783526,0.04414877668023109,0.035261619836092,-0.02911438792943954,-0.01533868163824081,0.06691646575927734,-0.01009821891784668,2,0.2296380251646042,0.03080151788890362,0.2347631752490997,0.9440358877182007,-0.04966562613844872,-0.4480352103710175,-0.8926352858543396,40.12425994873047,46.15399169921875,-0.79638671875,0,2
1562614150.914894,274,0,309414.3738277917,0.5000980977413914,-0.05541092820750158,0.4633486451014593,-0.08856404572725296,-0.01628759317100048,0.009101270698010921,-0.00307125598192215,0.06637522578239441,-0.01686906814575195,2,0.2290530651807785,0.03067157790064812,0.2345852106809616,0.9442265629768372,-0.04954308643937111,-0.4469461739063263,-0.8931878805160522,38.68012237548828,45.30093383789062,-3.79937744140625,0,2
1562614150.948283,275,0,309414.4088007917,0.5007827310439726,-0.05591282206871799,0.4619279968239536,0.02875858172774315,0.01371505483984947,-0.00399812962859869,-0.006004776805639267,0.06571245193481445,-0.01906770467758179,2,0.2284330576658249,0.03033740259706974,0.2349100112915039,0.9443067312240601,-0.0500267967581749,-0.445674866437912,-0.8937959671020508,39.31255340576172,45.70402908325195,-2.821136474609375,0,2
1562614150.996045,276,0,309414.4437127917,0.500493396487134,-0.05520109076254516,0.464080639554579,0.02449960447847843,0.001992084085941315,-0.01109375897794962,0.007266804575920105,0.07710200548171997,-6.580352783203125e-05,2,0.2293667793273926,0.03090634569525719,0.2347655296325684,0.9440978765487671,-0.04933759570121765,-0.4476008713245392,-0.8928713798522949,39.52153778076172,45.0097770690918,-2.326690673828125,0,2
1562614151.014259,277,0,309414.4786857917,0.5020210533753295,-0.05646292739564208,0.461746157366432,-0.04658112674951553,-0.01439115405082703,0.04223702102899551,-0.01119928061962128,0.07070720195770264,-0.01719868183135986,2,0.2283934354782104,0.03019659034907818,0.2354393899440765,0.9441890120506287,-0.05052304640412331,-0.4455120861530304,-0.8938491940498352,39.22885894775391,44.85416412353516,-1.466278076171875,0,2
1562614151.046289,278,0,309414.513648625,0.5014624374613234,-0.05471297964945398,0.4637525855262262,0.07879522442817688,0.05217216163873672,-0.05342435091733932,-0.007687985897064209,0.0730089545249939,0.0003338456153869629,2,0.229140043258667,0.03120727278292179,0.2352924942970276,0.9440118074417114,-0.04890979826450348,-0.4473074972629547,-0.8930419087409973,39.21361541748047,45.15472412109375,-1.13641357421875,0,2
1562614151.080112,279,0,309414.548621625,0.5010963345133496,-0.05497339913133765,0.4623507525201501,-0.07830587029457092,-0.02780177444219589,0.02450722455978394,-0.001912176609039307,0.06596988439559937,-0.009901821613311768,2,0.2285168021917343,0.03086904250085354,0.2351478785276413,0.9442099928855896,-0.04917676746845245,-0.4460532665252686,-0.8936543464660645,38.92211151123047,44.62286376953125,-1.75665283203125,0,2
1562614151.112143,280,0,309414.583533625,0.5017309939351692,-0.05488384877951519,0.4619240739579663,0.04056570678949356,0.01829728856682777,-0.00667300820350647,-0.006895203143358231,0.06206265091896057,-0.01277416944503784,2,0.2282956689596176,0.03093098290264606,0.2354753464460373,0.9441799521446228,-0.04910717532038689,-0.4456713497638702,-0.893848717212677,38.38292694091797,44.53524780273438,-2.753875732421875,0,2
1562614151.158234,281,0,309414.618506625,0.5019487691700991,-0.05553954545423877,0.4628890646841664,-0.002283228561282158,-0.01691688969731331,0.02022853866219521,-0.004714734852313995,0.06111186742782593,-0.0108262300491333,2,0.2288235425949097,0.03076587803661823,0.2354632318019867,0.9440605044364929,-0.04966936260461807,-0.4465349912643433,-0.8933864831924438,39.55507659912109,44.59938049316406,-0.7967529296875,0,2
1562614151.178765,282,0,309414.618506625,0.5019487691700991,-0.05553954545423877,0.4628890646841664,-0.002283228561282158,-0.01691688969731331,0.02022853866219521,-0.004714734852313995,0.06111186742782593,-0.0108262300491333,2,0.2288235425949097,0.03076587803661823,0.2354632318019867,0.9440605044364929,-0.04966936260461807,-0.4465349912643433,-0.8933864831924438,39.55507659912109,44.59938049316406,-0.7967529296875,0,2
1562614151.212571,283,0,309414.653449625,0.5035178395100486,-0.05691817437836653,0.4618140588361063,-0.01402729749679565,-0.03384953737258911,0.03828316181898117,-0.01390621811151505,0.05988898873329163,-0.01140803098678589,2,0.2284564673900604,0.03016107901930809,0.2360911220312119,0.9440121054649353,-0.05092823877930641,-0.4455728530883789,-0.893795907497406,39.52300262451172,43.89203262329102,-1.367645263671875,0,2
1562614151.243936,284,0,309414.688422625,0.5042663485973075,-0.05754901950132047,0.4618203859818287,-0.002387615386396646,0.01011472009122372,0.001865196391008794,-0.01100710034370422,0.04730618000030518,-0.009108603000640869,2,0.2285226881504059,0.0299496166408062,0.2363720536231995,0.9439325928688049,-0.05149191617965698,-0.445578545331955,-0.8937608003616333,40.19693756103516,43.75083541870117,0.8389892578125,0,2
1562614151.277884,285,0,309414.723334625,0.5048351207120683,-0.05843730437071445,0.4610057072795083,0.001225095707923174,-0.03643813356757164,0.01717680133879185,-0.00720006600022316,0.04340198636054993,-0.00987553596496582,2,0.228236123919487,0.0294937752187252,0.2365734577178955,0.9439657330513,-0.05230699107050896,-0.444849044084549,-0.8940767645835876,39.70632171630859,43.28067779541016,0.8050537109375,0,2
