loggingTime,loggingSample,identifierForVendor,motionTimestamp_sinceReboot,motionYaw,motionRoll,motionPitch,motionRotationRateX,motionRotationRateY,motionRotationRateZ,motionUserAccelerationX,motionUserAccelerationY,motionUserAccelerationZ,motionAttitudeReferenceFrame,motionQuaternionX,motionQuaternionY,motionQuaternionZ,motionQuaternionW,motionGravityX,motionGravityY,motionGravityZ,motionMagneticFieldX,motionMagneticFieldY,motionMagneticFieldZ,motionMagneticFieldCalibrationAccuracy,label
1562613727.492532,1,0,308990.903886875,-0.1488965163006731,0.1268155833246249,0.4424312837442338,-0.1281704157590866,-0.001363052055239677,-0.03219153732061386,0.01139913499355316,0.05022558569908142,0.01157575845718384,2,0.2229665368795395,0.04536270350217819,-0.05855631455779076,0.9720078706741333,0.1142980083823204,-0.4281378984451294,-0.8964563012123108,-9.15032958984375,4.199475288391113,-2.348602294921875,0,2
1562613727.494433,2,0,308990.938798875,-0.159018766859165,0.1178429498330069,0.4381904734495842,-0.04182597249746323,-0.6547020077705383,-0.4071941375732422,0.07115378230810165,0.007383525371551514,0.007496833801269531,2,0.2208493202924728,0.04006513208150864,-0.06463385373353958,0.9723387956619263,0.1064624488353729,-0.4243015944957733,-0.8992407321929932,-8.884567260742188,5.537416458129883,-4.16448974609375,0,2
1562613727.528244,3,0,308990.973772875,-0.1739391050733893,0.09309300128876224,0.4429945802077909,0.3081716001033783,-0.9664167165756226,-0.2472319900989532,0.04598721861839294,0.06910669803619385,-0.01967984437942505,2,0.2225660383701324,0.02615974843502045,-0.0744626522064209,0.9717177748680115,0.08398550003767014,-0.4286468923091888,-0.8995600342750549,-8.850387573242188,7.114299774169922,-6.375762939453125,0,2
1562613727.560175,4,0,308991.008714875,-0.1750534685319462,0.06802784373192394,0.4660000151210552,0.9352717399597168,-0.5138686895370483,0.1234124898910522,0.01676565781235695,0.08551162481307983,0.02909457683563232,2,0.2327730059623718,0.01278952043503523,-0.07718154788017273,0.9693792462348938,0.06072735413908958,-0.4493164122104645,-0.8913063406944275,-9.241943359375,7.809435844421387,-11.30572509765625,0,2
1562613727.594124,5,0,308991.043657875,-0.1666155155668095,0.05879887510484685,0.4950143507144182,0.6318791508674622,-0.1506944894790649,0.4070409536361694,-0.02012163773179054,0.07263281941413879,-0.08031195402145386,2,0.2464042156934738,0.008023596368730068,-0.07346430420875549,0.9663454294204712,0.05171095952391624,-0.4750442802906036,-0.8784411549568176,-8.901199340820312,6.344378471374512,-12.66549682617188,0,2
1562613727.63674,6,0,308991.078599875,-0.1436777863912858,0.03806725141243626,0.5014193960839923,-0.1208811327815056,-0.2728118598461151,0.6571555733680725,-0.007668636739253998,0.02444782853126526,-0.006210982799530029,2,0.2487301975488663,0.0005858305958099663,-0.06481090933084488,0.9664018154144287,0.0333731546998024,-0.480670690536499,-0.8762658834457397,-8.222274780273438,3.901753664016724,-13.37002563476562,0,2
1562613727.660281,7,0,308991.113573875,-0.1163894252855088,0.01777588717928147,0.4877055203339937,-0.4638240337371826,-0.1676745414733887,0.6476659178733826,-0.04594767093658447,-0.00521436333656311,0.05199497938156128,2,0.2415265738964081,-0.00543195242062211,-0.05429664626717567,0.9688587784767151,0.01570257544517517,-0.4686001539230347,-0.883270800113678,-6.881622314453125,1.407613277435303,-13.47894287109375,0,2
1562613727.692033,8,0,308991.1484735417,-0.09711381762386236,0.009692785884302699,0.481987537114502,0.04974238201975822,0.08056032657623291,0.3621193766593933,-0.07730826735496521,-0.05945798754692078,0.04594141244888306,2,0.2386121153831482,-0.006883507128804922,-0.04597928375005722,0.9700014591217041,0.008588404394686222,-0.4635412096977234,-0.8860337734222412,-6.1221923828125,0.4822134971618652,-13.15316772460938,0,2
1562613727.726004,9,0,308991.1834465417,-0.09907936243197334,0.0165398063530159,0.4932436603075289,0.404513955116272,0.2781658172607422,-0.2298940122127533,-0.04951116442680359,-0.01988554000854492,0.02640753984451294,2,0.2442186772823334,-0.004078984726220369,-0.04600302502512932,0.9686198234558105,0.01456762477755547,-0.4734854102134705,-0.8806812167167664,-5.212539672851562,-0.5220534801483154,-12.07418823242188,0,2
1562613727.75813,10,0,308991.2183895417,-0.1056154108191113,0.02772224544657264,0.5016956777304782,0.1058695018291473,0.160352036356926,-0.06515487283468246,-0.06208008527755737,0.03373846411705017,-0.01298785209655762,2,0.248564213514328,0.0003072947729378939,-0.04769048467278481,0.967440664768219,0.02430287376046181,-0.4809129536151886,-0.8764314651489258,-4.851226806640625,0.1324464082717896,-11.01025390625,0,2
1562613727.802852,11,0,308991.2533315417,-0.1036634260448665,0.02599763658330744,0.5064294509657548,0.1954472661018372,-0.1484976261854172,0.04734907671809196,0.001321239396929741,0.02359059453010559,-0.003089308738708496,2,0.2508118450641632,-0.0004107804561499506,-0.04690023884177208,0.9668989777565002,0.02273190394043922,-0.4850579500198364,-0.8741865158081055,-4.706771850585938,-0.1467111110687256,-11.08193969726562,0,2
1562613727.823888,12,0,308991.2882745417,-0.107683246565094,0.0149469643374137,0.5197052188284996,0.4495542347431183,-0.4510905146598816,-0.2043351531028748,0.004239809699356556,0.001936107873916626,-0.008681714534759521,2,0.2569472789764404,-0.006614845246076584,-0.05009002983570099,0.9651038646697998,0.01297296863049269,-0.4966242909431458,-0.8678686618804932,-4.853652954101562,-0.1123282909393311,-12.10055541992188,0,2
1562613727.876752,13,0,308991.3232475417,-0.1213750812100707,0.002782190394271439,0.5316877974000604,0.2573395669460297,-0.5541157126426697,-0.3919019401073456,-0.008641617372632027,0.01815634965896606,-0.02133685350418091,2,0.2623211145401001,-0.01459449343383312,-0.05815486237406731,0.9631161093711853,0.002398113254457712,-0.5069888830184937,-0.8619492650032043,-6.41229248046875,1.004235506057739,-14.07174682617188,0,2
1562613727.889738,14,0,308991.3581595417,-0.137673381365388,-0.007870295244698422,0.5371134435458934,0.1250256896018982,-0.5364424586296082,-0.3603777289390564,-0.01131216064095497,0.04021036624908447,-0.01455938816070557,2,0.2644487321376801,-0.02203566953539848,-0.06735798716545105,0.9617922306060791,-0.006762003060430288,-0.5116580128669739,-0.8591625690460205,-8.522872924804688,3.207101583480835,-15.9521484375,0,2
1562613727.923719,15,0,308991.3581595417,-0.137673381365388,-0.007870295244698422,0.5371134435458934,0.1250256896018982,-0.5364424586296082,-0.3603777289390564,-0.01131216064095497,0.04021036624908447,-0.01455938816070557,2,0.2644487321376801,-0.02203566953539848,-0.06735798716545105,0.9617922306060791,-0.006762003060430288,-0.5116580128669739,-0.8591625690460205,-8.522872924804688,3.207101583480835,-15.9521484375,0,2
1562613727.966013,16,0,308991.3931325417,-0.1474645608485088,-0.01953894497839212,0.5410739289516876,0.1310897767543793,-0.4369832277297974,-0.1759096086025238,-0.01193633675575256,0.06058084964752197,0.01735615730285645,2,0.2658165991306305,-0.02907449007034302,-0.07358645647764206,0.9607711434364319,-0.01674685813486576,-0.5150567889213562,-0.8569924235343933,-10.40267944335938,4.808444023132324,-17.52200317382812,0,2
1562613727.989582,17,0,308991.4280445417,-0.1517804184642597,-0.03127749973464409,0.5449624424486705,0.08052663505077362,-0.4099740386009216,-0.08842280507087708,-0.002967216074466705,0.05474311113357544,-0.008927583694458008,2,0.267172634601593,-0.03541944175958633,-0.07720770686864853,0.9598974585533142,-0.02674249187111855,-0.5183859467506409,-0.8547285199165344,-12.23440551757812,5.827217102050781,-18.50283813476562,0,2
1562613728.032435,18,0,308991.4630175417,-0.1529124442652363,-0.04268084080353735,0.5441672195315379,-0.01528468169271946,-0.2234909534454346,0.004550231155008078,-0.01797426864504814,0.03919994831085205,0.01245534420013428,2,0.2663229405879974,-0.04101584479212761,-0.07927296310663223,0.9597424864768982,-0.03650487959384918,-0.5177057981491089,-0.8547796010971069,-13.0966796875,6.251975059509277,-18.89450073242188,0,2
1562613728.055472,19,0,308991.4979605417,-0.1544311798027932,-0.04797124629371117,0.548742527196998,0.2242676615715027,-0.2375939637422562,-0.05878138914704323,-0.01012856140732765,0.01311463117599487,0.001510679721832275,2,0.2682759165763855,-0.04391159117221832,-0.08071092516183853,0.9589502215385437,-0.04091246426105499,-0.5216147899627686,-0.8521996140480042,-14.22476196289062,6.696511268615723,-18.66116333007812,0,2
1562613728.087673,20,0,308991.5329335417,-0.1545196544206567,-0.06013320950662249,0.5572365350434291,0.2471671551465988,-0.3380177915096283,0.02418161556124687,-0.009316958487033844,0.03075695037841797,0.01944053173065186,2,0.2718523144721985,-0.05003440380096436,-0.08241622895002365,0.9574969410896301,-0.05100549384951591,-0.5288428068161011,-0.8471857309341431,-15.63166809082031,6.965971946716309,-19.1729736328125,0,2
1562613728.121393,21,0,308991.5678455417,-0.1517791859454817,-0.07020150640659693,0.5670372165491674,0.3068198561668396,-0.242720827460289,0.05812520161271095,-0.01565845683217049,0.02968955039978027,0.003794491291046143,2,0.2762041091918945,-0.05479111894965172,-0.08253376930952072,0.9559797644615173,-0.059166070073843,-0.5371353030204773,-0.841418445110321,-17.0345458984375,6.716442108154297,-19.93508911132812,0,2
1562613728.153476,22,0,308991.6028185417,-0.1504837035589291,-0.07728565906392357,0.5766647346676994,0.2522106170654297,-0.1576216816902161,-0.01118212938308716,-0.02681899815797806,0.02604508399963379,0.0104670524597168,2,0.2805534303188324,-0.05829279497265816,-0.08296840637922287,0.9544672966003418,-0.06472299247980118,-0.54523104429245,-0.8357834219932556,-18.57737731933594,6.309600830078125,-20.68243408203125,0,2
1562613728.199035,23,0,308991.6377315417,-0.1482665609365145,-0.08549836247308007,0.5868614827525602,0.365641176700592,-0.2218949049711227,0.0666363388299942,-0.02142044901847839,0.05065649747848511,0.05078095197677612,2,0.2851501107215881,-0.06220009922981262,-0.08316183835268021,0.952840268611908,-0.07110630720853806,-0.5537503361701965,-0.8296411037445068,-19.03921508789062,6.239219665527344,-20.87451171875,0,2
1562613728.219283,24,0,308991.6727045417,-0.1432755556021323,-0.09599389211186764,0.599286536741489,0.2828112542629242,-0.1825882196426392,0.06943074613809586,-0.01608973741531372,0.03307801485061646,0.01580047607421875,2,0.2908020913600922,-0.06682668626308441,-0.08243438601493835,0.9508801102638245,-0.07914415001869202,-0.564053475856781,-0.8219366669654846,-19.78030395507812,5.677489757537842,-21.60183715820312,0,2
1562613728.253306,25,0,308991.7076465417,-0.1456913809360909,-0.0923726640972963,0.6032130508352808,0.04012614488601685,0.1374057233333588,-0.1592551022768021,-0.01578080654144287,0.04112619161605835,0.02256536483764648,2,0.2927422523498535,-0.06556587666273117,-0.08310048282146454,0.9503142833709717,-0.07596233487129211,-0.5672913789749146,-0.8200061917304993,-20.59501647949219,5.854795932769775,-21.19192504882812,0,2
1562613728.285171,26,0,308991.7425895417,-0.1515423214819505,-0.08647137249703718,0.6050687000649632,0.08029094338417053,0.04165125638246536,-0.1023106053471565,-0.02297599613666534,0.04485237598419189,0.02533596754074097,2,0.2936846315860748,-0.06367348879575729,-0.08503394573926926,0.9499812126159668,-0.07103090733289719,-0.5688185691833496,-0.8193900585174561,-21.43508911132812,7.010456085205078,-19.60482788085938,0,2
1562613728.319114,27,0,308991.7775325417,-0.1533897920056182,-0.08744469194132992,0.6080798441208529,0.04367303848266602,-0.1212388426065445,-0.03650402650237083,0.001949027180671692,0.0380515456199646,0.003535032272338867,2,0.2950166165828705,-0.06449741125106812,-0.08608252555131912,0.949418306350708,-0.07167849689722061,-0.5712925791740417,-0.8176105618476868,-21.63816833496094,7.296937942504883,-19.09262084960938,0,2
1562613728.357126,28,0,308991.8125055417,-0.154371746697037,-0.09352204259929264,0.6069040689186385,-0.06359518319368362,-0.2118709981441498,-0.01701546832919121,-0.006366617977619171,0.02702951431274414,-0.02000516653060913,2,0.2941612303256989,-0.06749177724123001,-0.08743201941251755,0.9493522644042969,-0.07670871913433075,-0.5703271627426147,-0.8178280591964722,-22.045166015625,7.721966743469238,-19.29983520507812,0,2
1562613728.385002,29,0,308991.8474175417,-0.1513711616969364,-0.1019450246170448,0.6081583323324395,0.1730347573757172,-0.1805374026298523,0.1351041346788406,-0.03705225884914398,0.0251157283782959,0.001616060733795166,2,0.2944940030574799,-0.07108417153358459,-0.08726237714290619,0.9490023851394653,-0.08352160453796387,-0.5713569521903992,-0.8164406418800354,-22.30972290039062,7.99269962310791,-20.12841796875,0,2
1562613728.418642,30,0,308991.8823905417,-0.1304944230861629,-0.1222951994578773,0.6267755887548137,0.8089357614517212,-0.2655217349529266,0.6460521817207336,-0.08326210081577301,-0.05838185548782349,0.04909384250640869,2,0.3032619655132294,-0.07807223498821259,-0.08070832490921021,0.9462679028511047,-0.09880296885967255,-0.5865362882614136,-0.8038738369941711,-22.24261474609375,5.98886775970459,-21.59359741210938,0,2
1562613728.451433,31,0,308991.9173335417,-0.08098957929656891,-0.1677544692344506,0.6580786093078996,1.202896118164062,-0.3517645001411438,1.091070890426636,-0.06378269195556641,0.1398487091064453,0.07187181711196899,2,0.3185243010520935,-0.0922551304101944,-0.06522683799266815,0.9411571025848389,-0.1321004778146744,-0.6115978360176086,-0.7800624966621399,-22.98345947265625,0.6147021055221558,-23.61050415039062,0,2
1562613728.482813,32,0,308991.9173335417,-0.08098957929656891,-0.1677544692344506,0.6580786093078996,1.202896118164062,-0.3517645001411438,1.091070890426636,-0.06378269195556641,0.1398487091064453,0.07187181711196899,2,0.3185243010520935,-0.0922551304101944,-0.06522683799266815,0.9411571025848389,-0.1321004778146744,-0.6115978360176086,-0.7800624966621399,-22.98345947265625,0.6147021055221558,-23.61050415039062,0,2
1562613728.522574,33,0,308991.9522755417,-0.01655398299959666,-0.1996045350867725,0.6883306033750535,0.935398280620575,0.4908892512321472,1.273838758468628,-0.1542060673236847,0.01641583442687988,-0.03365552425384521,2,0.3349442183971405,-0.09656932204961777,-0.04137010499835014,0.9363628029823303,-0.1531344801187515,-0.6352487802505493,-0.7569734454154968,-22.77928161621094,-3.121263742446899,-23.75796508789062,0,2
1562613728.548778,34,0,308991.9872185417,0.04352389640739237,-0.1966271052254197,0.6855009456300575,-0.162396028637886,1.488626003265381,1.319745182991028,-0.09689277410507202,-0.1343187689781189,0.0380479097366333,2,0.3363884091377258,-0.0851462110877037,-0.01258453633636236,0.9377817511558533,-0.1512305438518524,-0.6330608725547791,-0.7591859102249146,-21.1231689453125,-10.78411293029785,-20.726806640625,0,2
1562613728.603254,35,0,308992.0221915417,0.09077461919898115,-0.1735367299475355,0.6662585600814428,-0.1871712505817413,1.45936107635498,1.024001121520996,-0.1167488247156143,0.07089829444885254,-0.006435990333557129,2,0.3291519284248352,-0.06703014671802521,0.01440740749239922,0.941784679889679,-0.1357403844594955,-0.6180490255355835,-0.7743319272994995,-19.20596313476562,-16.99393272399902,-14.253662109375,0,2
1562613728.614672,36,0,308992.0571035417,0.1647650426421583,-0.1790613459487761,0.6739938586890577,0.7660444378852844,1.135595917701721,1.988533973693848,0.001909434795379639,-0.002576768398284912,0.05940365791320801,2,0.3351568877696991,-0.05699535831809044,0.04788578674197197,0.9392169117927551,-0.1391605138778687,-0.6241114735603333,-0.7688427567481995,-18.98542785644531,-24.99245071411133,-8.722564697265625,0,2
1562613728.648624,37,0,308992.0920765417,0.2605923116229918,-0.209587153503288,0.6695122610877398,-0.1006979942321777,0.3456369638442993,1.970628619194031,-0.05530513823032379,0.2150571346282959,-0.06579732894897461,2,0.3368032276630402,-0.05550587549805641,0.0879678875207901,0.9358121156692505,-0.1631418764591217,-0.620603621006012,-0.766965389251709,-19.71394348144531,-36.65708923339844,-4.94146728515625,0,2
1562613728.680621,38,0,308992.1270052917,0.3269616708998969,-0.2345934887919148,0.632594459183731,-0.8479184508323669,0.5788277387619019,1.473298311233521,0.03173117339611053,0.07140219211578369,0.05417072772979736,2,0.322895348072052,-0.05946308374404907,0.1177009865641594,0.9372028708457947,-0.1874681413173676,-0.5912391543388367,-0.7844054698944092,-20.29360961914062,-41.62074279785156,-5.18096923828125,0,2
1562613728.714481,39,0,308992.1619792917,0.3379881258643673,-0.263657352538819,0.6140545755393143,-0.4731455147266388,-0.5613002777099609,-0.5368791222572327,-0.1023115515708923,0.07560420036315918,0.1758952736854553,2,0.3164102435112,-0.07312460243701935,0.1197736114263535,0.9381852746009827,-0.2130040526390076,-0.5761860609054565,-0.789074718952179,-21.7847900390625,-48.2437629699707,-8.55023193359375,0,2
1562613728.763306,40,0,308992.1969212917,0.2647485671656231,-0.1978665960368639,0.5892974785970975,-1.19841730594635,1.241561055183411,-1.790479302406311,0.09240515530109406,-0.02429503202438354,0.07972180843353271,2,0.2989303767681122,-0.05554605647921562,0.09724949300289154,0.9476801753044128,-0.1634214520454407,-0.5557771325111389,-0.8151105046272278,-21.74440002441406,-43.92831039428711,-11.06546020507812,0,2
1562613728.780446,41,0,308992.2318942917,0.2090126746140172,-0.121173003748723,0.5841444607506872,0.2301565557718277,1.237606883049011,-0.8543770313262939,0.1218803077936172,0.1402474641799927,0.06158053874969482,2,0.2918897569179535,-0.02768735215067863,0.08237572759389877,0.9524956345558167,-0.100833423435688,-0.5514858961105347,-0.8280675411224365,-20.07121276855469,-37.90785217285156,-7.71453857421875,0,2
1562613728.81274,42,0,308992.2668062917,0.1767851749336866,-0.08523916096128512,0.5970282470737045,-0.1286323070526123,0.2762322723865509,-0.9432750344276428,0.2069762349128723,0.1379753947257996,0.009465932846069336,2,0.2962810099124908,-0.0146245202049613,0.07181507349014282,0.9522848129272461,-0.07040829956531525,-0.5621873140335083,-0.8240073919296265,-19.478759765625,-36.91720962524414,-6.53167724609375,0,2
1562613728.84633,43,0,308992.3017802917,0.1265357327211539,-0.007806159968429029,0.5582371651790768,-1.475243091583252,1.954062938690186,-1.141652822494507,0.2768310308456421,-0.203988790512085,-0.2572134733200073,2,0.2751923799514771,0.01367456745356321,0.05970511212944984,0.9594359397888184,-0.006621040869504213,-0.5296918153762817,-0.8481643199920654,-18.03488159179688,-32.69755935668945,-4.793212890625,0,2
1562613728.878779,44,0,308992.3366922917,0.09873667219764473,0.05111663562934313,0.5478608833264845,0.6184302568435669,0.7031172513961792,-0.4215355217456818,0.1955779194831848,-0.1947920918464661,-0.4654480218887329,2,0.2688854932785034,0.03791793808341026,0.05439762026071548,0.9608868956565857,0.04361623898148537,-0.5208624005317688,-0.8525256514549255,-16.1553955078125,-28.09478569030762,1.74908447265625,0,2
1562613728.928247,45,0,308992.3716652917,0.08925695237667525,0.07131917933597606,0.5980520803305738,1.616176128387451,0.4619041681289673,-0.05509957298636436,0.07570286095142365,0.03388828039169312,-0.03740352392196655,2,0.2925891876220703,0.04717037081718445,0.05309903249144554,0.9535969495773315,0.05889063701033592,-0.5630336999893188,-0.8243330717086792,-17.19509887695312,-26.75381660461426,5.430450439453125,0,2
1562613728.944276,46,0,308992.4066072917,0.08348248141451053,0.08645583163327882,0.6376446553163969,0.713560163974762,0.1852170825004578,-0.02842936664819717,-0.02319307625293732,0.1726250648498535,0.1987763643264771,2,0.3111704289913177,0.05406863242387772,0.0531228743493557,0.9473265409469604,0.06938076764345169,-0.595304548740387,-0.8004990816116333,-16.79786682128906,-26.81889724731445,7.65118408203125,0,2
1562613728.998084,47,0,308992.4415812917,0.09142374832814767,0.07596663784443164,0.6277689069065542,-0.7994781136512756,-0.3091670572757721,0.2814324200153351,0.0009928978979587555,0.08864814043045044,0.1914657354354858,2,0.3065601587295532,0.05017980188131332,0.05514446645975113,0.9489266872406006,0.06142371520400047,-0.5873405337333679,-0.8070057034492493,-15.31085205078125,-27.47101402282715,6.8319091796875,0,2
1562613729.010012,48,0,308992.4764932917,0.1130657462349857,0.05930639537326901,0.5866953269968318,-1.287814021110535,0.00630197674036026,0.4837428331375122,0.03064819425344467,-0.0410040020942688,0.01203173398971558,2,0.286965936422348,0.04466801509261131,0.06262477487325668,0.9548473954200745,0.04935992136597633,-0.5536119937896729,-0.8313106298446655,-14.24435424804688,-29.3077335357666,4.467803955078125,0,2
1562613729.044003,49,0,308992.5114662917,0.1328651830044593,0.04766091212642413,0.5558635351784382,-0.6270847916603088,-0.0695495530962944,0.3761430382728577,-0.01581091433763504,-0.02262580394744873,-0.1241149306297302,2,0.2721633315086365,0.04107160866260529,0.07034139335155487,0.9587973356246948,0.04047000035643578,-0.5276769995689392,-0.8484804630279541,-12.76641845703125,-31.55938339233398,3.35968017578125,0,2
1562613729.076522,50,0,308992.5114662917,0.1328651830044593,0.04766091212642413,0.5558635351784382,-0.6270847916603088,-0.0695495530962944,0.3761430382728577,-0.01581091433763504,-0.02262580394744873,-0.1241149306297302,2,0.2721633315086365,0.04107160866260529,0.07034139335155487,0.9587973356246948,0.04047000035643578,-0.5276769995689392,-0.8484804630279541,-12.76641845703125,-31.55938339233398,3.35968017578125,0,2
1562613729.110001,51,0,308992.5463782917,0.1423283525489359,0.04082210608417762,0.5481044125867288,-0.1092770993709564,-0.04429035261273384,0.1410376578569412,-0.02019223570823669,0.02778226137161255,-0.05412936210632324,2,0.2684963643550873,0.0388374961912632,0.07394599169492722,0.9596526622772217,0.03483255207538605,-0.5210702419281006,-0.8528026938438416,-12.47303771972656,-32.99267578125,2.69580078125,0,2
1562613729.156862,52,0,308992.5813512917,0.1467182352577719,0.03720191637931212,0.54077746653418,-0.3013285398483276,-0.02657122910022736,0.09066706150770187,-0.008484024554491043,0.05953234434127808,0.02574610710144043,2,0.2650278508663177,0.03744959458708763,0.07557293772697449,0.9605449438095093,0.03188617154955864,-0.5148026943206787,-0.8567155599594116,-11.6800537109375,-33.42274856567383,2.123748779296875,0,2
1562613729.175719,53,0,308992.6162942917,0.151954329156845,0.03394047456190926,0.526605983357663,-0.4518037140369415,-0.02065186016261578,0.1275793164968491,0.004505481570959091,0.02925169467926025,0.006828844547271729,2,0.2582392394542694,0.03609010949730873,0.07768145203590393,0.9622762799263,0.02933651395142078,-0.5026020407676697,-0.8640199899673462,-11.44448852539062,-33.97442245483398,1.63385009765625,0,2
1562613729.208401,54,0,308992.6512362917,0.1576283966282002,0.02770861134756155,0.5121643352978713,-0.3549274206161499,-0.1590726226568222,0.1167487129569054,0.01685400307178497,0.01441189646720886,-0.02321577072143555,2,0.2514267563819885,0.03330095112323761,0.07965601980686188,0.9640178680419922,0.02415011450648308,-0.4900650084018707,-0.8713512420654297,-10.30514526367188,-34.69557571411133,0.375244140625,0,2
1562613729.252586,55,0,308992.6861792917,0.1625518641960018,0.02007760262126378,0.5035892114229159,-0.22743821144104,-0.1001365184783936,0.1249975487589836,0.02776098996400833,0.01496732234954834,-0.007926762104034424,2,0.2475181221961975,0.02991596236824989,0.0811152458190918,0.9650182127952576,0.01758391037583351,-0.4825722873210907,-0.875679612159729,-9.7366943359375,-35.36671447753906,-1.115966796875,0,2
1562613729.273676,56,0,308992.7211522917,0.1681494572943633,0.01323475938590885,0.494624965530291,-0.2778722047805786,-0.1480473875999451,0.1469997763633728,0.004238568246364594,0.02939602732658386,0.009117841720581055,2,0.2433902770280838,0.02695005387067795,0.08303306251764297,0.9659919738769531,0.01164819113910198,-0.4747016131877899,-0.8800697326660156,-8.90399169921875,-36.30526733398438,-2.44189453125,0,2
1562613729.317495,57,0,308992.7560642917,0.1739625450451361,0.004598238461316156,0.4830301464008037,-0.3642699420452118,-0.2003625184297562,0.1417408287525177,0.004941288381814957,0.03198051452636719,0.01196610927581787,2,0.2380752414464951,0.02300132997334003,0.08489792048931122,0.9672556519508362,0.004072146955877542,-0.4644647836685181,-0.8855822086334229,-8.61865234375,-36.69095230102539,-3.0205078125,0,2
1562613729.339538,58,0,308992.7910372917,0.179575589067886,-0.007024342085780907,0.4702391819556476,-0.3590620160102844,-0.2880403697490692,0.1434055715799332,0.007001224905252457,0.03100907802581787,-0.00406801700592041,2,0.2323257029056549,0.01748690381646156,0.08638470619916916,0.9686365127563477,-0.006261867936700583,-0.4530995190143585,-0.8914379477500916,-7.839401245117188,-37.57663726806641,-5.14105224609375,0,2
1562613729.373409,59,0,308992.8259492917,0.1850059528610298,-0.0179410135927302,0.45990165825768,-0.2382521480321884,-0.1833067685365677,0.1476228088140488,0.01168401911854744,0.02594009041786194,-0.02796083688735962,2,0.2277528196573257,0.0123563427478075,0.08790018409490585,0.9696646928787231,-0.01607601158320904,-0.4438599944114685,-0.8959519267082214,-7.366241455078125,-38.71262359619141,-7.94024658203125,0,2
1562613729.405249,60,0,308992.8609232917,0.1899435780157001,-0.02416811762139966,0.4549615762209226,-0.1103034317493439,-0.1030902564525604,0.1166982278227806,-0.007031207904219627,0.03345075249671936,-0.01333695650100708,2,0.225607618689537,0.009665263816714287,0.08966642618179321,0.9700348377227783,-0.02170757204294205,-0.4394277930259705,-0.898015558719635,-6.315353393554688,-39.55121994018555,-9.65582275390625,0,2
1562613729.439375,61,0,308992.8958652917,0.1931550823034699,-0.02797880077422049,0.450511499313534,-0.1350958049297333,-0.04711382836103439,0.07607032358646393,0.003284923732280731,0.02781188488006592,0.008632779121398926,2,0.2236078977584839,0.007963512092828751,0.09087228029966354,0.9704011678695679,-0.02518391609191895,-0.4354260563850403,-0.8998721837997437,-5.691680908203125,-40.41423797607422,-10.587158203125,0,2
1562613729.477045,62,0,308992.9308382917,0.1960945592612626,-0.03084850111064031,0.4442778899628864,-0.1945903897285461,-0.05510625243186951,0.0937175452709198,0.009371276944875717,0.01734855771064758,0.007425189018249512,2,0.2207050323486328,0.006591877900063992,0.09209182858467102,0.970960795879364,-0.02784935012459755,-0.4298059940338135,-0.9024916887283325,-5.310302734375,-40.63977813720703,-10.83840942382812,0,2
1562613729.505278,63,0,308992.9657502917,0.2007202233425309,-0.03518046468249313,0.4363631119925362,-0.2358624935150146,-0.08292487263679504,0.1473554670810699,0.01135899871587753,0.0232728123664856,0.005834102630615234,2,0.2170526832342148,0.004597687162458897,0.09401317685842514,0.9716113209724426,-0.0318772941827774,-0.422646164894104,-0.9057340025901794,-4.808380126953125,-41.39547729492188,-11.7647705078125,0,2
1562613729.538738,64,0,308993.0007242917,0.2068864109461696,-0.0422912236113823,0.4264573418301469,-0.3016489148139954,-0.1658481657505035,0.1834313571453094,0.02001045271754265,0.04501113295555115,0.01348090171813965,2,0.2125721573829651,0.00129167246632278,0.09644722193479538,0.9723730683326721,-0.03849201276898384,-0.4136480391025543,-0.909622848033905,-4.216476440429688,-42.08430480957031,-13.005859375,0,2
1562613729.571081,65,0,308993.0356362917,0.2142143502205376,-0.0548797996996396,0.414990744394407,-0.3126530051231384,-0.3505690693855286,0.2199284285306931,0.02686023712158203,0.04489359259605408,0.005947232246398926,2,0.2076221257448196,-0.004679432604461908,0.09895028173923492,0.9731802940368652,-0.05019639804959297,-0.4031814634799957,-0.9137423038482666,-3.802658081054688,-43.05564880371094,-15.1290283203125,0,2
1562613729.603091,66,0,308993.0706092917,0.2232899193668315,-0.07344232464648424,0.4062310915937039,-0.1822186857461929,-0.4491565525531769,0.2850353717803955,0.03667180240154266,0.02044987678527832,-0.01566940546035767,2,0.2043370008468628,-0.01327501237392426,0.1016895845532417,0.9735139012336731,-0.06740470975637436,-0.3951499462127686,-0.9161403179168701,-3.53326416015625,-43.8851203918457,-16.4791259765625,0,2
1562613729.640402,67,0,308993.1055522917,0.2354504331315772,-0.09216848191911212,0.4019915879531902,-0.05305992439389229,-0.3830362558364868,0.3442328274250031,0.03016833961009979,0.01195457577705383,-0.009114861488342285,2,0.2033547312021255,-0.02140393294394016,0.1058331653475761,0.9731330871582031,-0.08470109850168228,-0.3912519514560699,-0.9163774251937866,-3.227569580078125,-45.22683334350586,-19.6676025390625,0,2
1562613729.669214,68,0,308993.1055522917,0.2354504331315772,-0.09216848191911212,0.4019915879531902,-0.05305992439389229,-0.3830362558364868,0.3442328274250031,0.03016833961009979,0.01195457577705383,-0.009114861488342285,2,0.2033547312021255,-0.02140393294394016,0.1058331653475761,0.9731330871582031,-0.08470109850168228,-0.3912519514560699,-0.9163774251937866,-3.227569580078125,-45.22683334350586,-19.6676025390625,0,2
1562613729.717492,69,0,308993.14051625,0.2453075596467825,-0.1043264844724391,0.3991433009517558,-0.06238510459661484,-0.165734738111496,0.203718289732933,-0.0318567305803299,0.02773097157478333,-0.0008221864700317383,2,0.2027449905872345,-0.02649863809347153,0.1094959899783134,0.9727296233177185,-0.09595154970884323,-0.388629138469696,-0.9163845777511597,-2.93157958984375,-47.35199356079102,-21.8597412109375,0,2
1562613729.735038,70,0,308993.17542825,0.2472150633249495,-0.1069154711214974,0.3963221996658245,-0.07852179557085037,0.004751792177557945,-0.01015611924231052,-0.04985776543617249,0.04137769341468811,-0.009126245975494385,2,0.2015445232391357,-0.0277493093162775,0.1102687269449234,0.9728569984436035,-0.09844033420085907,-0.3860282301902771,-0.9172195792198181,-3.29791259765625,-47.55702972412109,-22.67599487304688,0,2
1562613729.768915,71,0,308993.21040125,0.2440310783048693,-0.103146118941092,0.3954160510036966,0.0005135517567396164,0.08625701814889908,-0.101701594889164,-0.01802048087120056,0.0513441264629364,-0.01808750629425049,2,0.2008550763130188,-0.02629478648304939,0.1091329455375671,0.973167896270752,-0.09501829743385315,-0.3851921558380127,-0.9179316163063049,-4.017669677734375,-47.22144317626953,-21.65618896484375,0,2
1562613729.801442,72,0,308993.24531325,0.2410227760193492,-0.1006288284730414,0.3967585371320326,0.03459985181689262,0.009437886998057365,-0.05962402001023293,0.01220664381980896,0.04776224493980408,-0.0008650422096252441,2,0.2013313472270966,-0.02528616040945053,0.1078729853034019,0.9732366800308228,-0.09265526384115219,-0.3864307105541229,-0.9176526069641113,-4.36944580078125,-46.70003890991211,-20.89010620117188,0,2
1562613729.834774,73,0,308993.28028625,0.2420488149284211,-0.1041192514330286,0.3962074229982693,-0.03860704600811005,-0.1353027671575546,0.07162274420261383,0.03122760355472565,0.03439018130302429,0.02202779054641724,2,0.2012656182050705,-0.02691661566495895,0.1080411970615387,0.9731879830360413,-0.09587980806827545,-0.3859223425388336,-0.9175353050231934,-5.113723754882812,-45.95853805541992,-19.35641479492188,0,2
1562613729.877222,74,0,308993.31522925,0.247610006266756,-0.1155551029234156,0.3928764993587609,-0.08096811175346375,-0.3246200084686279,0.2051486819982529,0.03297742456197739,0.0247352123260498,0.009753167629241943,2,0.2003540098667145,-0.03213933482766151,0.1097275987267494,0.9730288982391357,-0.1065137311816216,-0.3828473389148712,-0.9176506400108337,-6.929351806640625,-46.00294876098633,-19.46627807617188,0,2
1562613729.901111,75,0,308993.35017125,0.2568054264869497,-0.1282118241569527,0.3893179256641017,-0.06425175070762634,-0.2045247554779053,0.2601377964019775,0.01741047203540802,0.01993101835250854,-0.002682685852050781,2,0.1994937211275101,-0.03761658445000648,0.1130840852856636,0.9726249575614929,-0.1182927861809731,-0.3795574605464935,-0.9175745248794556,-7.814178466796875,-46.52540588378906,-19.60324096679688,0,2
1562613729.932792,76,0,308993.38511425,0.2636489789891659,-0.1346455336026149,0.3866873562201661,-0.04149975627660751,-0.06211782991886139,0.1385601609945297,-0.01200972497463226,0.03086006641387939,-0.002583146095275879,2,0.1987204551696777,-0.04024724289774895,0.1158880963921547,0.9723477959632874,-0.1243273094296455,-0.3771224319934845,-0.9177806973457336,-8.251007080078125,-47.00909042358398,-19.62191772460938,0,2
1562613729.966721,77,0,308993.42008725,0.2640859825040915,-0.1336943460294757,0.3855802667884727,-0.01929358392953873,0.05134809389710426,-0.04857924580574036,-0.02109833061695099,0.03001651167869568,-0.007025837898254395,2,0.1981376111507416,-0.03981978446245193,0.1162449792027473,0.9724417328834534,-0.1235098466277122,-0.3760968744754791,-0.9183117151260376,-9.121978759765625,-47.01723480224609,-18.4625244140625,0,2
1562613729.998548,78,0,308993.45499925,0.2597215917947873,-0.1302323650903199,0.3855230738717547,-0.02030796185135841,0.03672759979963303,-0.1332154721021652,0.004789024591445923,0.02164745330810547,0.005823433399200439,2,0.1978246718645096,-0.03857226297259331,0.1144678145647049,0.9727665185928345,-0.1203327253460884,-0.3760438561439514,-0.9187551736831665,-9.509750366210938,-45.96349334716797,-16.45822143554688,0,2
1562613730.037755,79,0,308993.48997225,0.2558616453062835,-0.13118958346466,0.3845446494343848,-0.04707956314086914,-0.1253913044929504,-0.07033605128526688,0.03280186653137207,0.02325737476348877,0.01292365789413452,2,0.1973292827606201,-0.03948687762022018,0.1125386655330658,0.9730554819107056,-0.1212601959705353,-0.3751370906829834,-0.9190039038658142,-10.45549011230469,-44.89399337768555,-15.77651977539062,0,2
1562613730.064925,80,0,308993.52488525,0.2551046165976981,-0.1388205075130629,0.3818688193108925,-0.09009575843811035,-0.2887921929359436,0.02225810475647449,0.02895589172840118,0.03201860189437866,0.008415341377258301,2,0.1964434832334518,-0.04345829039812088,0.111539363861084,0.9731805324554443,-0.1284078806638718,-0.3726553320884705,-0.9190426468849182,-11.23277282714844,-44.023681640625,-15.81069946289062,0,2
1562613730.116909,81,0,308993.55985825,0.2575687226250238,-0.1523697547464556,0.3778778958692231,-0.1065004616975784,-0.3936581313610077,0.1180518120527267,0.02559766173362732,0.04121690988540649,0.00172114372253418,2,0.1953220963478088,-0.05008655413985252,0.1116006746888161,0.9730806350708008,-0.1410726606845856,-0.36894890666008,-0.9186812043190002,-11.72422790527344,-43.94418334960938,-16.178955078125,0,2
1562613730.130435,82,0,308993.59480025,0.2648494503865423,-0.1658647641654938,0.3753450869598496,0.01215011347085238,-0.2454380542039871,0.2283110469579697,0.02142609655857086,0.03431189060211182,-0.01990228891372681,2,0.1950493007898331,-0.05612024664878845,0.1139538660645485,0.9725332260131836,-0.1536108553409576,-0.366593599319458,-0.9176125526428223,-12.52159118652344,-44.06949615478516,-16.90203857421875,0,2
1562613730.164306,83,0,308993.62977325,0.2714053680991357,-0.1719412069473648,0.3759404789062935,0.0519411675632,-0.02382106706500053,0.133973017334938,-0.02614803612232208,0.04017645120620728,-0.007534623146057129,2,0.1958752870559692,-0.05838979408144951,0.1165151074528694,0.9719298481941223,-0.1591464281082153,-0.3671474754810333,-0.9164469838142395,-13.55618286132812,-44.33811569213867,-16.05267333984375,0,2
1562613730.20228,84,0,308993.66468625,0.2759802545070837,-0.1693565830077254,0.3773552220464479,0.06676976382732391,0.1502820253372192,0.08803185075521469,-0.03179675340652466,0.03484067320823669,-0.0002388358116149902,2,0.1965389847755432,-0.05657951906323433,0.1189148798584938,0.9716122150421143,-0.1566895246505737,-0.3684630692005157,-0.9163423776626587,-14.14804077148438,-44.30830001831055,-14.793701171875,0,2
1562613730.230284,85,0,308993.66468625,0.2759802545070837,-0.1693565830077254,0.3773552220464479,0.06676976382732391,0.1502820253372192,0.08803185075521469,-0.03179675340652466,0.03484067320823669,-0.0002388358116149902,2,0.1965389847755432,-0.05657951906323433,0.1189148798584938,0.9716122150421143,-0.1566895246505737,-0.3684630692005157,-0.9163423776626587,-14.14804077148438,-44.30830001831055,-14.793701171875,0,2
1562613730.28356,86,0,308993.69965925,0.2763996205183853,-0.1646795472433948,0.3780840185507034,0.007646330632269382,0.130767747759819,-0.03717522695660591,-0.01289394497871399,0.0337945818901062,0.01111412048339844,2,0.1966242641210556,-0.05421136692166328,0.1195393651723862,0.9716534018516541,-0.1523579955101013,-0.3691404759883881,-0.9168000817298889,-14.17440795898438,-44.04021072387695,-13.05123901367188,0,2
1562613730.296549,87,0,308993.73457125,0.2743255525973179,-0.1613852049958466,0.3778132529799804,-0.01386586576700211,0.04160409420728683,-0.05076383799314499,0.01348614692687988,0.02945327758789062,0.00925368070602417,2,0.1962414085865021,-0.0528346411883831,0.1188693642616272,0.9718888401985168,-0.1493529826402664,-0.3688888251781464,-0.9173955917358398,-14.151123046875,-43.72311401367188,-12.48696899414062,0,2
1562613730.328838,88,0,308993.76954425,0.2743130423710087,-0.1605841316878576,0.3776292425768907,0.008530359715223312,0.03561507165431976,0.02430228888988495,0.03052246570587158,0.01951640844345093,0.001826107501983643,2,0.1961044073104858,-0.05246027559041977,0.1189514100551605,0.971926748752594,-0.1486288756132126,-0.3687177896499634,-0.9175819754600525,-14.19425964355469,-43.13332748413086,-11.92889404296875,0,2
1562613730.362755,89,0,308993.80448725,0.2753582576437963,-0.1605229146634522,0.3780388972190304,0.01390350516885519,-0.001081399619579315,0.01167667377740145,0.01217731833457947,0.0246737003326416,0.002402961254119873,2,0.1963263750076294,-0.05229745805263519,0.1194441020488739,0.9718301892280579,-0.1485485583543777,-0.3690985441207886,-0.9174418449401855,-13.598388671875,-43.55672454833984,-12.09866333007812,0,2
1562613730.393996,90,0,308993.83946025,0.2749378975334029,-0.1600860781944948,0.3780721400704121,-0.001453820616006851,0.006818957626819611,-0.01744987629354,0.007471144199371338,0.02977055311203003,-0.0004892349243164062,2,0.1963054090738297,-0.05212397128343582,0.119280993938446,0.9718638062477112,-0.1481458097696304,-0.3691294491291046,-0.917494535446167,-13.39314270019531,-43.39391326904297,-12.89321899414062,0,2
1562613730.442887,91,0,308993.87437225,0.2743091753495741,-0.1592647692288811,0.3793111723845316,0.04921607300639153,0.0192441213876009,-0.02164484746754169,0.006018355488777161,0.03240308165550232,-0.006695091724395752,2,0.1968396753072739,-0.05169444531202316,0.1189922243356705,0.9718141555786133,-0.147319570183754,-0.3702806830406189,-0.9171636700630188,-13.35392761230469,-43.26099014282227,-13.004150390625,0,2
1562613730.45994,92,0,308993.90934525,0.2737828257114532,-0.1585792422364608,0.3806771298315159,0.02442828752100468,0.001583430916070938,-0.01322008576244116,0.005919143557548523,0.03519889712333679,0.007675468921661377,2,0.1974462866783142,-0.05131177231669426,0.118733748793602,0.9717429876327515,-0.1466107815504074,-0.3715492188930511,-0.9167641401290894,-13.00613403320312,-43.52548599243164,-13.5582275390625,0,2
1562613730.493807,93,0,308993.94425725,0.2742089608176102,-0.1594282661817305,0.3803577437340625,-0.01702320389449596,-0.02889494225382805,0.02343516238033772,0.002887234091758728,0.03716039657592773,0.005882441997528076,2,0.1973531991243362,-0.05170594900846481,0.1188734546303749,0.9717237949371338,-0.1474079191684723,-0.3712526559829712,-0.9167563915252686,-12.58193969726562,-43.86734390258789,-14.16668701171875,0,2
1562613730.525724,94,0,308993.97923025,0.2749141265874067,-0.1599436820906381,0.379861211800435,-0.001787681598216295,0.01528356038033962,0.01360801514238119,-0.004544958472251892,0.03404375910758972,-0.006127119064331055,2,0.1971619129180908,-0.05192378163337708,0.1191908866167068,0.9717121720314026,-0.1479097455739975,-0.3707915842533112,-0.9168621897697449,-12.31761169433594,-44.20009231567383,-15.24642944335938,0,2
1562613730.559779,95,0,308994.01417325,0.2748590790754405,-0.1590691559142212,0.3799275999481491,0.004168197978287935,0.03180904686450958,-0.01009651832282543,-0.00368836522102356,0.03558570146560669,0.001179814338684082,2,0.1971404850482941,-0.05149936303496361,0.1192469224333763,0.9717321991920471,-0.1471039652824402,-0.3708532452583313,-0.9169669151306152,-11.87864685058594,-44.8264274597168,-16.5220947265625,0,2
1562613730.597023,96,0,308994.04911625,0.2744342421996996,-0.1581013108059334,0.379451511818971,-0.0193105936050415,0.01972665823996067,-0.00580740999430418,0.009504199028015137,0.03053474426269531,0.005143225193023682,2,0.1968415379524231,-0.05110636726021767,0.1191602945327759,0.9718242287635803,-0.1462441980838776,-0.3704110383987427,-0.9172831177711487,-11.51670837402344,-44.73779296875,-17.04293823242188,0,2
1562613730.626166,97,0,308994.08405825,0.2745843996940053,-0.1574406366298787,0.3788577188781884,-0.003704823320731521,0.02486446686089039,0.008349752053618431,0.01192270219326019,0.02426049113273621,-0.002874255180358887,2,0.1965186446905136,-0.05081469938158989,0.1193286255002022,0.9718841910362244,-0.1456726044416428,-0.3698594272136688,-0.9175965785980225,-11.016357421875,-45.03877258300781,-17.74948120117188,0,2
1562613730.658233,98,0,308994.1190496667,0.2750854439649164,-0.1564290013512828,0.3788314014279542,0.003177891485393047,0.04219955578446388,0.01337274722754955,0.007500588893890381,0.03062942624092102,0.00187528133392334,2,0.1964581310749054,-0.05027583613991737,0.1196728348731995,0.9718821048736572,-0.1447457671165466,-0.3698349893093109,-0.9177531003952026,-10.87008666992188,-45.71781921386719,-17.88882446289062,0,2
1562613730.691386,99,0,308994.1539616667,0.2753255181038048,-0.1555522674571396,0.3790101611317868,0.007196162361651659,0.01579687371850014,-0.00388903496786952,0.005036816000938416,0.02858319878578186,0.003447234630584717,2,0.1964981257915497,-0.04981290921568871,0.1198665425181389,0.9718740582466125,-0.1439308524131775,-0.3700010478496552,-0.917814314365387,-10.71041870117188,-46.04651260375977,-18.47381591796875,0,2
1562613730.723333,100,0,308994.1889356667,0.2752149291570958,-0.1547403317203941,0.3787050228170975,-0.007371834479272366,0.01968599855899811,0.0009578373283147812,0.008763745427131653,0.02707874774932861,0.005277693271636963,2,0.1962990462779999,-0.04945190995931625,0.1199079677462578,0.9719275832176208,-0.1432029902935028,-0.3697175681591034,-0.9180423617362976,-10.50685119628906,-46.28877258300781,-18.83346557617188,0,2
1562613730.757377,101,0,308994.2238776667,0.275334758177404,-0.154809906512877,0.378024780638103,-0.01776668429374695,0.0002851355820894241,0.007284974679350853,0.006104648113250732,0.03119143843650818,0.004112482070922852,2,0.1959769576787949,-0.04952456429600716,0.1199937090277672,0.9719783067703247,-0.1433056145906448,-0.369085431098938,-0.9182807207107544,-10.38754272460938,-46.66716384887695,-19.20858764648438,0,2
1562613730.789404,102,0,308994.2238776667,0.275334758177404,-0.154809906512877,0.378024780638103,-0.01776668429374695,0.0002851355820894241,0.007284974679350853,0.006104648113250732,0.03119143843650818,0.004112482070922852,2,0.1959769576787949,-0.04952456429600716,0.1199937090277672,0.9719783067703247,-0.1433056145906448,-0.369085431098938,-0.9182807207107544,-10.38754272460938,-46.66716384887695,-19.20858764648438,0,2
1562613730.828461,103,0,308994.2588206667,0.2757645649961059,-0.1547302490125353,0.3776691209144357,0.006638023070991039,0.008931605145335197,0.01015676558017731,0.00132143497467041,0.03093677759170532,-0.002933204174041748,2,0.1958106756210327,-0.04947022721171379,0.1202283427119255,0.9719855785369873,-0.1432526856660843,-0.3687548637390137,-0.918421745300293,-9.8851318359375,-47.22153854370117,-19.40005493164062,0,2
1562613730.855144,104,0,308994.2937626667,0.275837708308131,-0.1538362733325927,0.3779155990386626,0.005887849722057581,0.03611514717340469,-0.006238809786736965,0.001187369227409363,0.03162387013435364,0.0022316575050354,2,0.1958780139684677,-0.04901024326682091,0.1203390210866928,0.9719815850257874,-0.1424176394939423,-0.3689839541912079,-0.9184595942497253,-10.2119140625,-47.50757217407227,-19.75711059570312,0,2
1562613730.88921,105,0,308994.3287366667,0.2756112729506373,-0.1517533235373987,0.3780346137902997,0.00962083600461483,0.07845658808946609,-0.01183834113180637,0.002210170030593872,0.03095650672912598,0.0006673336029052734,2,0.1958047449588776,-0.04801123961806297,0.1204269826412201,0.9720353484153748,-0.1404975950717926,-0.369094580411911,-0.9187108278274536,-10.63227844238281,-47.51195907592773,-19.80642700195312,0,2
1562613730.921172,106,0,308994.3636486667,0.2742450038053426,-0.1479260034721783,0.3789442750598224,0.02948874793946743,0.107278473675251,-0.05528450012207031,-0.003344178199768066,0.0308261513710022,-0.001666843891143799,2,0.1959827989339828,-0.04621744155883789,0.1200929805636406,0.9721277356147766,-0.1369308233261108,-0.3699398338794708,-0.9189093708992004,-11.20162963867188,-47.58052062988281,-19.56365966796875,0,2
1562613730.955483,107,0,308994.3986216667,0.2722560947418997,-0.1438433926458117,0.3796975830120632,0.00570596382021904,0.06761773675680161,-0.05029653012752533,0.01025393605232239,0.03000074625015259,0.008420169353485107,2,0.196057990193367,-0.04437244310975075,0.1194899529218674,0.9722728729248047,-0.1331381648778915,-0.3706396222114563,-0.919184684753418,-11.87721252441406,-47.2160758972168,-18.42318725585938,0,2
1562613730.990777,108,0,308994.4335336667,0.2715917577455396,-0.1427048377819391,0.3791329013485653,-0.02399162016808987,0.01573868095874786,0.008020062930881977,0.02293835580348969,0.02799561619758606,0.007878303527832031,2,0.1957018673419952,-0.04392524436116219,0.1193053498864174,0.9723875522613525,-0.132121279835701,-0.3701150715351105,-0.9195427298545837,-12.46086120605469,-46.79988098144531,-17.15353393554688,0,2
1562613731.02099,109,0,308994.4685066667,0.2725775943918289,-0.1434633855021206,0.3784768084798397,-0.003407725133001804,-0.02475769072771072,0.02862338349223137,0.01144903898239136,0.02729380130767822,-0.001457571983337402,2,0.1954511255025864,-0.04424559697508812,0.1197416409850121,0.972369909286499,-0.1328534483909607,-0.3695054948329926,-0.9196823835372925,-13.38497924804688,-46.20449447631836,-16.24981689453125,0,2
1562613731.053104,110,0,308994.5034496667,0.2732873013554287,-0.1441806353742301,0.3780737405324648,-0.01320973969995975,-0.003274936228990555,0.01600847952067852,0.004699796438217163,0.02778863906860352,0.001401841640472412,2,0.1953146755695343,-0.04455453157424927,0.120035856962204,0.9723468422889709,-0.1335344463586807,-0.369130939245224,-0.9197341203689575,-14.70001220703125,-45.90802001953125,-15.54534912109375,0,2
1562613731.086989,111,0,308994.5384226667,0.2734356459186508,-0.14394980300618,0.3776520808569819,-0.001993731595575809,0.01011326909065247,0.0003013159148395061,0.001030579209327698,0.02817448973655701,-6.115436553955078e-05,2,0.1950998902320862,-0.0444587916135788,0.1201506555080414,0.9723801612854004,-0.1333444565534592,-0.3687390089035034,-0.9199188947677612,-14.85302734375,-45.75085830688477,-15.33111572265625,0,2
1562613731.119169,112,0,308994.5733346667,0.2730105307193159,-0.1432041788036073,0.3775549488144886,-0.003228488378226757,0.01371146366000175,-0.01606136001646519,0.003950059413909912,0.03179201483726501,0.002850711345672607,2,0.1949986517429352,-0.04414485394954681,0.1200213059782982,0.9724307656288147,-0.1326636075973511,-0.3686487376689911,-0.9200535416603088,-15.75569152832031,-45.36571502685547,-13.9583740234375,0,2
1562613731.159838,113,0,308994.6083076667,0.2727531367496793,-0.1421348762117277,0.3777877735043885,0.01665717363357544,0.04695352911949158,-0.002106085419654846,0.007362693548202515,0.03185606002807617,-0.005744576454162598,2,0.195041611790657,-0.04363298043608665,0.1199893802404404,0.9724492430686951,-0.1316675692796707,-0.3688651323318481,-0.9201098680496216,-16.43794250488281,-44.82428359985352,-12.81906127929688,0,2
1562613731.184955,114,0,308994.6432196667,0.2725263976420675,-0.1400963742367894,0.3794129553039493,0.06731606274843216,0.03360804915428162,-0.02571823447942734,-0.004700526595115662,0.03391733765602112,-0.007522940635681152,2,0.1957016736268997,-0.042545136064291,0.120001807808876,0.9723632335662842,-0.1297077685594559,-0.3703752458095551,-0.919781506061554,-17.05819702148438,-44.51308059692383,-11.582763671875,0,2
1562613731.246148,115,0,308994.6781926667,0.2698737895704095,-0.1401881506959761,0.3841388648153269,0.1496738791465759,-0.06207679957151413,-0.1220411658287048,-0.01175925135612488,0.02672654390335083,-0.01806932687759399,2,0.1979396045207977,-0.04250682890415192,0.1184819042682648,0.9720982313156128,-0.1295461505651474,-0.3747608959674835,-0.9180261492729187,-17.39033508300781,-43.97782897949219,-11.04788208007812,0,2
1562613731.251085,116,0,308994.7131356667,0.2623678308498864,-0.1460847048548404,0.3938433022065772,0.3584169447422028,-0.4042299091815948,-0.3466992974281311,-0.05685123801231384,0.02135732769966125,-0.07315444946289062,2,0.2028146386146545,-0.04542757570743561,0.1137824133038521,0.9715226292610168,-0.134421318769455,-0.3837403059005737,-0.9136050939559937,-18.04713439941406,-42.84370040893555,-10.40255737304688,0,2
1562613731.28471,117,0,308994.7481086667,0.2448764996351752,-0.1512984599379094,0.4155428243937683,0.6018646359443665,-0.1888498514890671,-0.6109241247177124,-0.09037619829177856,0.02332037687301636,-0.07133764028549194,2,0.2131818532943726,-0.0482766255736351,0.1036907583475113,0.9702943563461304,-0.1378950476646423,-0.4036866128444672,-0.9044457077980042,-19.36618041992188,-40.54966354370117,-10.9539794921875,0,2
1562613731.328995,118,0,308994.7830206667,0.2207592361064106,-0.1546228129109248,0.4311103934587079,0.1788020730018616,-0.5887735486030579,-0.6592774391174316,-0.09413602948188782,0.01892882585525513,-0.01106494665145874,2,0.2202640622854233,-0.05149710923433304,0.09086582809686661,0.9698325395584106,-0.1399160921573639,-0.4178798496723175,-0.8976635932922363,-20.49102783203125,-37.49162292480469,-11.76095581054688,0,2
1562613731.350515,119,0,308994.8179936667,0.2051440439882661,-0.1814932713104895,0.4326514017978573,-0.136085033416748,-1.248701930046082,-0.09532225877046585,-0.08099240064620972,-0.009790897369384766,0.08701062202453613,2,0.2216984778642654,-0.06615749001502991,0.08024515956640244,0.9695533514022827,-0.1638668924570084,-0.4192793667316437,-0.8929459452629089,-22.3546142578125,-35.34156799316406,-16.12322998046875,0,2
1562613731.395581,120,0,308994.8179936667,0.2051440439882661,-0.1814932713104895,0.4326514017978573,-0.136085033416748,-1.248701930046082,-0.09532225877046585,-0.08099240064620972,-0.009790897369384766,0.08701062202453613,2,0.2216984778642654,-0.06615749001502991,0.08024515956640244,0.9695533514022827,-0.1638668924570084,-0.4192793667316437,-0.8929459452629089,-22.3546142578125,-35.34156799316406,-16.12322998046875,0,2
1562613731.416726,121,0,308994.8529056667,0.2165685756608461,-0.2397951346249635,0.4287211626909941,0.04992669448256493,-1.535393595695496,0.5185683369636536,-0.03672701120376587,-0.01473957300186157,0.1979509592056274,2,0.2225893288850784,-0.093363918364048,0.07954633980989456,0.9671657681465149,-0.216009110212326,-0.4157080352306366,-0.8834743499755859,-23.76148986816406,-35.39379119873047,-19.77291870117188,0,2
1562613731.448409,122,0,308994.8878796667,0.23874888995552,-0.301803188983007,0.4237028203639142,-0.07847462594509125,-1.489363312721252,0.5806673765182495,-0.02029138803482056,0.06602838635444641,0.12054842710495,2,0.2239039838314056,-0.1211659833788872,0.08372066169977188,0.9634193181991577,-0.2709580659866333,-0.411138653755188,-0.8703716397285461,-27.23974609375,-37.83375549316406,-26.83078002929688,0,2
1562613731.482308,123,0,308994.9228216667,0.2390335131456854,-0.3312953510124486,0.4082568486072705,-0.6003044843673706,-0.3302088677883148,-0.0816834568977356,0.09873232245445251,0.09349486231803894,0.09444338083267212,2,0.2177648544311523,-0.1364766508340836,0.08197146654129028,0.9629295468330383,-0.2985357940196991,-0.3970100283622742,-0.8679051995277405,-30.09574890136719,-39.41729354858398,-32.9951171875,0,2
1562613731.514379,124,0,308994.9577646667,0.2152940089409716,-0.3136168966315114,0.3883692390063958,-0.6813096404075623,0.3918518722057343,-0.5940894484519958,0.1231230795383453,0.1105445921421051,-0.03307837247848511,2,0.2059588134288788,-0.1318667531013489,0.07416601479053497,0.9667944312095642,-0.2855263650417328,-0.3786796033382416,-0.8803842663764954,-30.31112670898438,-36.87128067016602,-33.79107666015625,0,2
1562613731.561522,125,0,308994.9927076667,0.1739749796542895,-0.2441630494734246,0.3673247197632433,-0.7128171920776367,2.186352729797363,-0.4752476811408997,0.2281872481107712,0.125570148229599,0.2801544070243835,2,0.1909888088703156,-0.103529118001461,0.06262443214654922,0.9741063117980957,-0.2256178706884384,-0.3591198921203613,-0.9056099653244019,-28.98861694335938,-34.10460662841797,-32.65045166015625,0,2
1562613731.58069,126,0,308995.0276806667,0.1484620199069297,-0.1788641591110452,0.3219440579564628,-1.665688872337341,1.632750153541565,-0.6886140704154968,-0.1328911185264587,0.09329703450202942,0.05165481567382812,2,0.16573566198349,-0.07607634365558624,0.05863607302308083,0.9814814925193787,-0.1687712222337723,-0.3164113461971283,-0.9334881901741028,-25.14541625976562,-30.10713195800781,-25.68911743164062,0,2
1562613731.614222,127,0,308995.0625926667,0.1086903708707711,-0.1031949432741494,0.2604530792858192,-1.956220626831055,2.005751609802246,-0.8785372972488403,-0.1254191696643829,-0.08478653430938721,-0.0363161563873291,2,0.1322722136974335,-0.04401803761720657,0.04709929600358009,0.9891148209571838,-0.09953764081001282,-0.2575183808803558,-0.9611329436302185,-21.80857849121094,-24.34955978393555,-19.4071044921875,0,2
1562613731.646033,128,0,308995.0975656667,0.08346453042952043,-0.04166790007897713,0.1992052316175055,-1.640739321708679,1.057026982307434,-0.2818391025066376,0.1364278495311737,0.002217322587966919,-0.1313367486000061,2,0.1001946926116943,-0.01656347513198853,0.03943463414907455,0.9940481185913086,-0.04083206504583359,-0.1978903412818909,-0.9793733358383179,-19.14892578125,-19.00184440612793,-12.16690063476562,0,2
1562613731.679928,129,0,308995.13246375,0.09280548462271511,-0.02842844558385578,0.1518823739840773,-1.202359080314636,0.2399892807006836,0.6159920692443848,0.08351793885231018,-0.09157520532608032,-0.1263044476509094,2,0.07643631100654602,-0.01063864771276712,0.04517051577568054,0.995993971824646,-0.02809739299118519,-0.1512991040945053,-0.9880886077880859,-17.55732727050781,-18.31763458251953,-9.923126220703125,0,2
1562613731.715933,130,0,308995.16743675,0.1301861386042963,-0.03829736907300396,0.11309470088908,-1.05763840675354,-0.33535036444664,1.319574952125549,0.07240258157253265,0.01903046667575836,-0.005186975002288818,2,0.05763068795204163,-0.01540081575512886,0.06385136395692825,0.9961749315261841,-0.03804340958595276,-0.1128537654876709,-0.992883026599884,-17.24949645996094,-19.87387657165527,-9.930999755859375,0,2
1562613731.745871,131,0,308995.20237975,0.1850736328244093,-0.05904260386263756,0.06603416358941865,-1.447274923324585,-0.4539167881011963,1.779710412025452,0.0237734280526638,-0.03771572560071945,0.07581990957260132,2,0.0355815514922142,-0.02632565423846245,0.09134398400783539,0.9948352575302124,-0.05887969955801964,-0.06598618626594543,-0.9960818290710449,-16.64494323730469,-25.74856185913086,-11.73117065429688,0,2
1562613731.801564,132,0,308995.23735275,0.2291144069760324,-0.08486322683038597,0.005444871313300227,-1.576995968818665,-0.9353302717208862,0.9516212940216064,-0.008209295570850372,0.1843906939029694,-0.05420041084289551,2,0.007550903130322695,-0.04182977974414825,0.114088773727417,0.9925608038902283,-0.0847601443529129,-0.005444844253361225,-0.9963865280151367,-16.43049621582031,-32.66438293457031,-15.63577270507812,0,2
1562613731.811657,133,0,308995.27226475,0.231702824378667,-0.1061038116061999,-0.01559954855799018,-0.0138416513800621,-0.2536616921424866,-0.05656889826059341,-0.09769557416439056,0.06855128705501556,-0.1141342520713806,2,-0.001607175101526082,-0.05357028543949127,0.1158371195197105,0.9918212294578552,-0.1058919504284859,0.01559891551733017,-0.9942553043365479,-17.04667663574219,-33.16047286987305,-20.11749267578125,0,2
1562613731.844134,134,0,308995.30723775,0.2370128391630035,-0.09768808256402728,-0.01497288110698652,-0.1621622443199158,0.3808748126029968,0.2247412949800491,0.00455128401517868,0.01346873119473457,0.1225414872169495,2,-0.001652661827392876,-0.04936487600207329,0.1184478774666786,0.9917310476303101,-0.09752184897661209,0.01497232168912888,-0.9951207637786865,-16.83255004882812,-33.8257942199707,-19.01919555664062,0,2
1562613731.877667,135,0,308995.34214975,0.2378196575370589,-0.09063985972297139,-0.0252401648977555,-0.1296636611223221,0.09048587083816528,-0.05266304686665535,0.01261480152606964,0.06933905184268951,-0.01840412616729736,2,-0.007143741473555565,-0.04647646099328995,0.1190662533044815,0.9917722344398499,-0.09048697352409363,0.02523748576641083,-0.9955778121948242,-15.96649169921875,-33.66366577148438,-19.62026977539062,0,2
1562613731.909736,136,0,308995.37712275,0.2346758911171621,-0.08588052407474073,-0.02132580815386562,0.04433544725179672,0.1799863874912262,-0.1294833868741989,0.007496610283851624,0.03211898356676102,0.02373260259628296,2,-0.005554483737796545,-0.04387659206986427,0.1174088940024376,0.9920982718467712,-0.08575548976659775,0.02132419124245644,-0.9960879683494568,-13.57057189941406,-33.63930511474609,-22.10147094726562,0,2
1562613731.957553,137,0,308995.41206575,0.228977156129553,-0.08837159524489015,-0.02233682203016527,0.004849738907068968,-0.1325951218605042,-0.1546237617731094,0.01481547206640244,0.03048148564994335,-0.001439273357391357,2,-0.006038467399775982,-0.04515410214662552,0.1146100983023643,0.9923654198646545,-0.08823460340499878,0.02233496494591236,-0.9958493113517761,-12.95294189453125,-32.70075607299805,-23.7916259765625,0,2
1562613731.975472,138,0,308995.41206575,0.228977156129553,-0.08837159524489015,-0.02233682203016527,0.004849738907068968,-0.1325951218605042,-0.1546237617731094,0.01481547206640244,0.03048148564994335,-0.001439273357391357,2,-0.006038467399775982,-0.04515410214662552,0.1146100983023643,0.9923654198646545,-0.08823460340499878,0.02233496494591236,-0.9958493113517761,-12.95294189453125,-32.70075607299805,-23.7916259765625,0,2
1562613732.009551,139,0,308995.44703875,0.2268429513479526,-0.08652294463298069,-0.01976836855470878,0.07535142451524734,0.05146362632513046,-0.01060875132679939,-0.004051797091960907,0.01924300380051136,0.02723389863967896,2,-0.004916826728731394,-0.04408561065793037,0.1134917512536049,0.9925481677055359,-0.08639814704656601,0.01976708136498928,-0.9960645437240601,-12.42716979980469,-32.18724060058594,-24.44381713867188,0,2
1562613732.041436,140,0,308995.48195075,0.2298241584841732,-0.08234296416740232,-0.01827576898566958,0.0780525803565979,0.2552183270454407,0.102503314614296,-0.01677851378917694,0.04119901731610298,0.02434968948364258,2,-0.004350635223090649,-0.04193353280425072,0.1149310320615768,0.9924784302711487,-0.08223620802164078,0.01827475242316723,-0.9964452981948853,-12.26856994628906,-32.37555694580078,-24.87857055664062,0,2
1562613732.075371,141,0,308995.51692375,0.2338837493517653,-0.06740184365759169,-0.01262538582687457,0.1950805634260178,0.4556339979171753,0.1037515848875046,-0.003579095005989075,0.03966809436678886,0.01879590749740601,2,-0.002334726043045521,-0.03419985994696617,0.1168181970715523,0.9925615191459656,-0.06734545528888702,0.01262505073100328,-0.9976498484611511,-11.26846313476562,-33.19823837280273,-23.873779296875,0,2
1562613732.123461,142,0,308995.55183675,0.2373041235805691,-0.05334621635909144,-0.006273110234785876,0.1989622861146927,0.4163191020488739,0.0720527321100235,-0.009151596575975418,0.04779713228344917,0.02377897500991821,2,4.361943138064817e-05,-0.02685345523059368,0.1184142306447029,0.9926010966300964,-0.05331986770033836,0.006273068953305483,-0.9985578060150146,-10.39781188964844,-34.09235382080078,-22.38406372070312,0,2
1562613732.141279,143,0,308995.58680975,0.2391611416086442,-0.03974397628971636,-9.541228980876855e-05,0.1663477271795273,0.3580890893936157,0.04257601499557495,0.0009896755218505859,0.03017791919410229,0.008334159851074219,2,0.002323132706806064,-0.01973447017371655,0.1192731782793999,0.9926625490188599,-0.03973351418972015,9.541228791931644e-05,-0.9992102980613708,-9.225997924804688,-34.68093109130859,-21.23541259765625,0,2
1562613732.173741,144,0,308995.62175175,0.2413656327402865,-0.02982933647201275,0.004035726148571675,0.09396466612815857,0.2489980012178421,0.07575388252735138,0.007976589724421501,0.03081935830414295,0.02147334814071655,2,0.0037984699010849,-0.01456270553171635,0.1203465685248375,0.9926179051399231,-0.02982467040419579,-0.004035715013742447,-0.999547004699707,-8.246185302734375,-35.22664260864258,-19.97894287109375,0,2
1562613732.207316,145,0,308995.65669475,0.243677142055438,-0.02445338559190634,0.006022902346443795,0.06686322391033173,0.151082381606102,0.05074020102620125,0.01033268123865128,0.03743212297558784,0.01295769214630127,2,0.004474855028092861,-0.01176972128450871,0.1214911714196205,0.9925126433372498,-0.0244505051523447,-0.006022865884006023,-0.9996829032897949,-8.548751831054688,-35.45135879516602,-19.69500732421875,0,2
1562613732.239191,146,0,308995.69163775,0.2451423109678221,-0.02049760959097674,0.008184198683936716,0.05635391548275948,0.07562088966369629,0.04057192802429199,0.02059447765350342,0.02978435717523098,0.01406890153884888,2,0.005314206704497337,-0.00967136025428772,0.1222154125571251,0.9924421906471252,-0.02049548737704754,-0.008184107020497322,-0.9997564554214478,-9.044998168945312,-35.98411560058594,-18.7578125,0,2
1562613732.281102,147,0,308995.72661075,0.2465958626250965,-0.01910848303558561,0.00850729515875868,-0.0008597578853368759,0.02478515729308128,0.04300936311483383,0.01541990414261818,0.02899390831589699,0.01287305355072021,2,0.005396157968789339,-0.008958367630839348,0.1229387149214745,0.9923591017723083,-0.01910662837326527,-0.008507192134857178,-0.9997812509536743,-9.65399169921875,-36.28017044067383,-17.24179077148438,0,2
1562613732.305027,148,0,308995.76152275,0.2477143681401747,-0.01741622915928817,0.00863353791071912,0.01212424878031015,0.05930477380752563,0.02869497984647751,0.01267324574291706,0.03002055548131466,0.01551216840744019,2,0.005359308328479528,-0.008107941597700119,0.1234976202249527,0.9922972321510315,-0.01741470023989677,-0.008633431047201157,-0.999811053276062,-10.57571411132812,-36.29393005371094,-15.447265625,0,2
1562613732.355207,149,0,308995.79649575,0.2487910993284275,-0.01541428780943123,0.008798694964966105,0.008524186909198761,0.05151822417974472,0.03151606395840645,0.004825292155146599,0.03558750078082085,0.01442974805831909,2,0.005321454256772995,-0.007101608905941248,0.1240364462137222,0.9922379851341248,-0.01541308034211397,-0.008798581548035145,-0.9998425245285034,-11.39224243164062,-36.4764518737793,-13.86862182617188,0,2
1562613732.371224,150,0,308995.83143875,0.249844929958862,-0.01388973058290329,0.009131214275849092,0.006900283042341471,0.04354207590222359,0.02837843634188175,0.004260532557964325,0.03430294245481491,0.01560878753662109,2,0.005395202897489071,-0.006321770139038563,0.1245620399713516,0.9921770095825195,-0.0138887045904994,-0.009131086990237236,-0.9998618364334106,-11.76527404785156,-36.53268432617188,-13.5552978515625,0,2
1562613732.405034,151,0,308995.86638075,0.2505660774084209,-0.01289095111744739,0.00938663222102102,0.01669601164758205,0.01262865029275417,0.0178018007427454,0.006495610810816288,0.03518424183130264,0.01389557123184204,2,0.005461801309138536,-0.005808401852846146,0.1249215751886368,0.9921345710754395,-0.01289002597332001,-0.009386494755744934,-0.9998728632926941,-12.47431945800781,-36.34211349487305,-12.87588500976562,0,2
1562613732.441573,152,0,308995.90132375,0.2511490898335307,-0.01258299840028075,0.009546803117296497,0.009374078363180161,0.003362378105521202,0.01663239672780037,0.008369344286620617,0.03369663655757904,0.01826196908950806,2,0.005523666739463806,-0.005644017364829779,0.1252110749483109,0.9920986890792847,-0.01258209254592657,-0.009546658024191856,-0.9998752474784851,-14.05709838867188,-36.1844367980957,-12.44961547851562,0,2
1562613732.47079,153,0,308995.93629675,0.251680005053337,-0.01213559944365436,0.009638837689166038,0.003040814306586981,0.01752480305731297,0.01521266531199217,0.01037816051393747,0.0320034921169281,0.02005189657211304,2,0.005542748142033815,-0.005414849612861872,0.1254753619432449,0.9920664429664612,-0.01213473826646805,-0.009638688527047634,-0.9998798966407776,-15.87840270996094,-35.75446319580078,-12.1268310546875,0,2
1562613732.518176,154,0,308995.97120875,0.2521251353946427,-0.01157184954558142,0.00955803367053489,0.002714175265282393,0.01780529133975506,0.01420903671532869,0.01277406699955463,0.0306561216711998,0.01673293113708496,2,0.005468442104756832,-0.005139065440744162,0.1256979703903198,0.9920401573181152,-0.01157106272876263,-0.00955788791179657,-0.9998873472213745,-16.5716552734375,-35.90997314453125,-12.08306884765625,0,2
1562613732.537164,155,0,308995.97120875,0.2521251353946427,-0.01157184954558142,0.00955803367053489,0.002714175265282393,0.01780529133975506,0.01420903671532869,0.01277406699955463,0.0306561216711998,0.01673293113708496,2,0.005468442104756832,-0.005139065440744162,0.1256979703903198,0.9920401573181152,-0.01157106272876263,-0.00955788791179657,-0.9998873472213745,-16.5716552734375,-35.90997314453125,-12.08306884765625,0,2
1562613732.568895,156,0,308996.00618175,0.2526368232574621,-0.01096991897767946,0.009597061481244127,0.003429946955293417,0.01422944664955139,0.01248905807733536,0.01026418153196573,0.03161071985960007,0.0152134895324707,2,0.005451207514852285,-0.004836647305637598,0.1259533017873764,0.9920093417167664,-0.01096919365227222,-0.009596914052963257,-0.9998937845230103,-17.15763854980469,-35.90205001831055,-11.6943359375,0,2
1562613732.602511,157,0,308996.04109375,0.2529926196613465,-0.01049677120539026,0.009696425167862911,0.003662318922579288,0.01056167483329773,0.009509127587080002,0.009714255109429359,0.0321221761405468,0.01671296358108521,2,0.005471512209624052,-0.004594730213284492,0.1261307746171951,0.9919878244400024,-0.01049608457833529,-0.009696273133158684,-0.9998978972434998,-17.92172241210938,-35.76995086669922,-11.29678344726562,0,2
1562613732.634558,158,0,308996.07606775,0.2533478262732359,-0.009964603555416607,0.009647318022400394,0.001588165294378996,0.01983835734426975,0.01013535913079977,0.005855136550962925,0.031737320125103,0.01662737131118774,2,0.005414362996816635,-0.004332914482802153,0.1263085305690765,0.9919667840003967,-0.009963975287973881,-0.009647168219089508,-0.9999037981033325,-17.96121215820312,-35.83504486083984,-11.763671875,0,2
1562613732.68119,159,0,308996.11100975,0.2536444100110719,-0.009292259761828472,0.009672595773879369,0.001172917895019054,0.02125220373272896,0.008489256724715233,0.007226784713566303,0.03186943382024765,0.01632839441299438,2,0.005385031457990408,-0.003997047431766987,0.1264573782682419,0.9919493794441223,-0.009291691705584526,-0.009672445245087147,-0.9999100565910339,-18.01292419433594,-35.73193359375,-12.06378173828125,0,2
1562613732.700407,160,0,308996.1459791667,0.2539377471381961,-0.008699421853913359,0.00968929173180855,0.003501120023429394,0.01666008122265339,0.008725154213607311,0.008296548388898373,0.03336625173687935,0.01947689056396484,2,0.005356370937079191,-0.003701173234730959,0.1266044229269028,0.9919318556785583,-0.008698903955519199,-0.009689140133559704,-0.9999152421951294,-17.7044677734375,-35.86569976806641,-12.74551391601562,0,2
1562613732.734521,161,0,308996.1808911667,0.254313929769423,-0.008483062898543255,0.009691262321394431,0.001063455827534199,0.006579192355275154,0.01152162626385689,0.008705578744411469,0.03260528296232224,0.01784604787826538,2,0.005344328004866838,-0.003592736553400755,0.1267915666103363,0.9919084310531616,-0.008482562378048897,-0.00969111081212759,-0.9999170899391174,-17.15016174316406,-35.7469596862793,-14.18984985351562,0,2
1562613732.766428,162,0,308996.2158651667,0.2547415416436006,-0.008081717297021151,0.009746567761841733,0.005239002872258425,0.01962289214134216,0.01104179210960865,0.007830792106688023,0.03273693844676018,0.01754367351531982,2,0.005347037687897682,-0.003389036981388927,0.1270045787096024,0.9918819069862366,-0.008081245236098766,-0.009746413677930832,-0.9999198317527771,-17.16935729980469,-35.70218658447266,-15.1519775390625,0,2
1562613732.800222,163,0,308996.2507771667,0.2549951129664567,-0.007623051470042479,0.009788964895151658,-0.001563203521072865,0.009054169058799744,0.007690895348787308,0.01028607971966267,0.03033797442913055,0.01435774564743042,2,0.005339337978512049,-0.003158195642754436,0.127131462097168,0.9918664693832397,-0.00762261264026165,-0.009788808412849903,-0.999923050403595,-16.33816528320312,-35.9801139831543,-16.47647094726562,0,2
1562613732.845523,164,0,308996.2857501667,0.2551922768686212,-0.007361923942917841,0.009580230031747137,-0.0008997051045298576,0.008690608665347099,0.005898214876651764,0.01052823662757874,0.03051048517227173,0.01509416103363037,2,0.005219520535320044,-0.003041451331228018,0.1272303760051727,0.9918548464775085,-0.007361519616097212,-0.009580083191394806,-0.9999269843101501,-16.15969848632812,-35.95680618286133,-17.10595703125,0,2
1562613732.866286,165,0,308996.3206921667,0.2554533857249106,-0.00691418469320973,0.009562045652330093,0.006548978853970766,0.01039931178092957,0.008261611685156822,0.008111651986837387,0.03156039863824844,0.01555532217025757,2,0.00518238777294755,-0.002819885732606053,0.127361074090004,0.9918388724327087,-0.006913813296705484,-0.009561900049448013,-0.9999303817749023,-15.16154479980469,-36.27119445800781,-18.9051513671875,0,2
1562613732.920827,166,0,308996.3556661667,0.2557947880212995,-0.006565496701577941,0.009561622504856947,0.002197007648646832,0.009436242282390594,0.01098255254328251,0.009349515661597252,0.03246024250984192,0.01538980007171631,2,0.005160425323992968,-0.002646110719069839,0.1275312900543213,0.9918175339698792,-0.006565149407833815,-0.009561477228999138,-0.9999327659606934,-14.83766174316406,-36.32804107666016,-20.30465698242188,0,2
1562613732.932026,167,0,308996.3905781667,0.256136392876443,-0.006104561582492016,0.009558738523775617,0.0007817097939550877,0.01397116295993328,0.007379039190709591,0.008979653008282185,0.03125191107392311,0.01852083206176758,2,0.005130015779286623,-0.002416836563497782,0.1277018785476685,0.9917963743209839,-0.006104244850575924,-0.009558592922985554,-0.9999356865882874,-14.36737060546875,-36.30579376220703,-21.43914794921875,0,2
1562613732.963953,168,0,308996.4255511667,0.2563646940440256,-0.005673872288967874,0.009486528625087117,0.001506165601313114,0.007865840569138527,0.007102657109498978,0.008090754970908165,0.03150006011128426,0.01750171184539795,2,0.00506695918738842,-0.002207291778177023,0.1278163194656372,0.9917824268341064,-0.005673586390912533,-0.009486386552453041,-0.9999389052391052,-13.93405151367188,-36.48300552368164,-22.161376953125,0,2
1562613733.000509,169,0,308996.4604631667,0.2565890138703411,-0.005523695968591399,0.009467909301177843,0.003377036657184362,0.004492146894335747,0.005976939108222723,0.007101188879460096,0.03212229162454605,0.01422208547592163,2,0.005048368126153946,-0.002133444650098681,0.1279279738664627,0.9917682409286499,-0.00552342040464282,-0.009467767551541328,-0.9999399185180664,-13.68441772460938,-36.62994384765625,-22.369384765625,0,2
1562613733.029936,170,0,308996.4954361667,0.2567945604082773,-0.00514824016081494,0.009508270618343509,0.002533406019210815,0.01264379173517227,0.007090882863849401,0.008907344192266464,0.03126242384314537,0.01828253269195557,2,0.005044566467404366,-0.001944161369465292,0.1280307769775391,0.9917554259300232,-0.005147984717041254,-0.009508127346634865,-0.9999415278434753,-13.28851318359375,-36.65950012207031,-22.85470581054688,0,2
1562613733.075762,171,0,308996.5303791667,0.2569893252691148,-0.004847901518627353,0.009447810006951709,-0.001297784503549337,0.005287915468215942,0.004965844098478556,0.008835576474666595,0.03049999848008156,0.01497346162796021,2,0.00499553419649601,-0.001798614743165672,0.1281282007694244,0.9917433857917786,-0.004847666248679161,-0.009447669610381126,-0.9999436140060425,-13.42596435546875,-36.51620483398438,-23.86834716796875,0,2
1562613733.095986,172,0,308996.5303791667,0.2569893252691148,-0.004847901518627353,0.009447810006951709,-0.001297784503549337,0.005287915468215942,0.004965844098478556,0.008835576474666595,0.03049999848008156,0.01497346162796021,2,0.00499553419649601,-0.001798614743165672,0.1281282007694244,0.9917433857917786,-0.004847666248679161,-0.009447669610381126,-0.9999436140060425,-13.42596435546875,-36.51620483398438,-23.86834716796875,0,2
1562613733.129844,173,0,308996.5653211667,0.2572844159223299,-0.004812795514723234,0.009255360382797119,-0.002237173495814204,-0.0001947488635778427,0.009537586010992527,0.008769924752414227,0.0289187952876091,0.02066695690155029,2,0.00489811971783638,-0.001792815281078219,0.1282749027013779,0.9917249083518982,-0.004812570754438639,-0.009255228564143181,-0.9999455809593201,-12.94071960449219,-36.80706787109375,-24.29238891601562,0,2
1562613733.161876,174,0,308996.6002641667,0.2575669204553376,-0.004498835978220189,0.009413844053763297,0.009667007252573967,0.01243423298001289,0.007799554150551558,0.009706848300993443,0.03005400858819485,0.01529586315155029,2,0.004956798627972603,-0.00162626791279763,0.1284155249595642,0.9917067289352417,-0.004498621448874474,-0.009413705207407475,-0.9999455809593201,-12.60411071777344,-36.82600402832031,-24.94522094726562,0,2
1562613733.195757,175,0,308996.6352371667,0.2578584632798698,-0.004347305853630618,0.009408480053731115,-0.002690617693588138,0.004218656569719315,0.009839961305260658,0.009036360308527946,0.02888897061347961,0.0192486047744751,2,0.004944635555148125,-0.001550754881463945,0.1285604685544968,0.9916881322860718,-0.004347099922597408,-0.009408340789377689,-0.9999462962150574,-11.88499450683594,-36.8881950378418,-25.94012451171875,0,2
1562613733.235231,176,0,308996.6701491667,0.2581724484325529,-0.004086354171413467,0.009318028813089367,0.0008275159634649754,0.01400205679237843,0.009039786644279957,0.008759878575801849,0.0303243026137352,0.01621407270431519,2,0.004883235786110163,-0.001426412025466561,0.128716915845871,0.9916683435440063,-0.004086165223270655,-0.009317893534898758,-0.999948263168335,-11.62713623046875,-36.8807258605957,-26.95419311523438,0,2
1562613733.261602,177,0,308996.7051221667,0.2584968569453608,-0.003639754581925405,0.009274738413020119,0.002171328756958246,0.01098150759935379,0.009309456683695316,0.007931338623166084,0.03238667920231819,0.01591098308563232,2,0.004833224229514599,-0.001206975197419524,0.1288789063692093,0.9916478395462036,-0.003639589995145798,-0.00927460566163063,-0.9999503493309021,-11.41152954101562,-36.80252075195312,-27.77691650390625,0,2
1562613733.293565,178,0,308996.7400341667,0.2587821443619048,-0.003322737351288991,0.009238582473309557,0.00324334530159831,0.008302066475152969,0.007020365446805954,0.006393284536898136,0.03143495693802834,0.01531738042831421,2,0.004795019049197435,-0.001051436644047499,0.129021167755127,0.9916296601295471,-0.003322589443996549,-0.009238450787961483,-0.9999517798423767,-11.45156860351562,-37.25446319580078,-27.62936401367188,0,2
1562613733.327919,179,0,308996.7750081667,0.2590137400838167,-0.003036372296378028,0.009224368305254483,-0.0002837157808244228,0.006601091474294662,0.005600740201771259,0.00828862376511097,0.02905561588704586,0.01734781265258789,2,0.004769603256136179,-0.0009098173468373716,0.1291366964578629,0.9916148781776428,-0.003036238485947251,-0.009224237874150276,-0.9999528527259827,-11.44398498535156,-37.24090957641602,-27.31536865234375,0,2
1562613733.359984,180,0,308996.8099501667,0.25927710540909,-0.002717741500420977,0.009076599975666632,-0.0004672235809266567,0.006230169907212257,0.00916734617203474,0.008976738899946213,0.02783957496285439,0.01965415477752686,2,0.004675865173339844,-0.0007607642328366637,0.1292681694030762,0.99159836769104,-0.00271762628108263,-0.009076475165784359,-0.9999551177024841,-11.04318237304688,-37.3883056640625,-27.75421142578125,0,2
1562613733.400614,181,0,308996.8449231667,0.2596867476375637,-0.002425068035782553,0.008980807690653342,0.002322338055819273,0.005302265286445618,0.01209384482353926,0.008882120251655579,0.03070388734340668,0.01349121332168579,2,0.004609582480043173,-0.0006209047860465944,0.1294720470905304,0.9915720820426941,-0.002424967940896749,-0.008980686776340008,-0.9999567270278931,-8.984405517578125,-37.56492614746094,-29.83364868164062,0,2
1562613733.425385,182,0,308996.8798361667,0.2600950136719425,-0.002435153685061628,0.008898048916656047,-0.00142647372558713,-0.001951068639755249,0.01196963340044022,0.009426276199519634,0.03056000359356403,0.0159485936164856,2,0.004569333046674728,-0.0006303303525783122,0.12967449426651,0.9915459156036377,-0.002435054862871766,-0.008897931315004826,-0.9999574422836304,-8.823196411132812,-37.89677429199219,-30.54116821289062,0,2
1562613733.474928,183,0,308996.9148091667,0.2604766443621417,-0.002442583716545308,0.008705572949625229,-0.003985272720456123,-0.004806545563042164,0.01119273994117975,0.009494754485785961,0.02823109552264214,0.01611810922622681,2,0.004474514164030552,-0.0006456407718360424,0.1298638582229614,0.9915214776992798,-0.002442488679662347,-0.008705463260412216,-0.9999591112136841,-8.453033447265625,-37.64877700805664,-30.69534301757812,0,2
1562613733.491265,184,0,308996.9497211667,0.2607922538375362,-0.002425955315693367,0.008439727780926977,-0.008276710286736488,-0.0012025386095047,0.009337414987385273,0.009371302090585232,0.02933825738728046,0.01811933517456055,2,0.004341742023825645,-0.0006539751775562763,0.1300205886363983,0.9915015697479248,-0.00242586643435061,-0.008439627476036549,-0.9999614357948303,-8.267868041992188,-37.87734222412109,-31.19766235351562,0,2
1562613733.525386,185,0,308996.9846941667,0.2611099875791543,-0.002497770088335821,0.008092957605838388,-0.005442728288471699,-0.004375098273158073,0.009558198973536491,0.009046472609043121,0.03153933212161064,0.01561963558197021,2,0.004174612462520599,-0.0007114596082828939,0.1301782578229904,0.9914815425872803,-0.002497685607522726,-0.008092869073152542,-0.9999641180038452,-7.392410278320312,-38.12997817993164,-32.2999267578125,0,2
1562613733.560873,186,0,308997.0196371667,0.2614133547729289,-0.002500656969002446,0.007997884779812763,-0.002044822555035353,0.002145128324627876,0.0070278225466609,0.006958910264074802,0.03109320439398289,0.01404869556427002,2,0.004127778112888336,-0.0007184533169493079,0.1303287297487259,0.9914619326591492,-0.00250057433731854,-0.007997799664735794,-0.9999648928642273,-6.97662353515625,-37.89739227294922,-33.40524291992188,0,2
1562613733.591666,187,0,308997.0546101667,0.2617576005891425,-0.002318392856879556,0.007790701295951292,-0.005922651384025812,0.007976651191711426,0.01014132425189018,0.009431483224034309,0.03152666613459587,0.01804858446121216,2,0.0040133036673069,-0.0006409105844795704,0.1304999142885208,0.9914400577545166,-0.002318320330232382,-0.007790622301399708,-0.9999669790267944,-6.664505004882812,-38.15454483032227,-33.79653930664062,0,2
1562613733.646084,188,0,308997.0895221667,0.2620867818620358,-0.002204362407556033,0.00766995512265801,0.00080098956823349,0.001720050349831581,0.007885731756687164,0.009485179558396339,0.03233657777309418,0.01724106073379517,2,0.003946104552596807,-0.0005916131194680929,0.1306634247303009,0.9914187788963318,-0.002204295713454485,-0.007669880054891109,-0.9999681711196899,-6.466690063476562,-38.27944564819336,-34.14230346679688,0,2
1562613733.656999,189,0,308997.124509625,0.2623304153056357,-0.002139534980991381,0.007572416174504998,-0.0001040073111653328,0.00117013230919838,0.006475643254816532,0.007772335782647133,0.03057572990655899,0.0184016227722168,2,0.003893587505444884,-0.0005653760163113475,0.1307844072580338,0.9914029836654663,-0.002139471936970949,-0.007572343572974205,-0.9999690651893616,-6.1552734375,-38.32562637329102,-34.35147094726562,0,2
1562613733.689304,190,0,308997.124509625,0.2623304153056357,-0.002139534980991381,0.007572416174504998,-0.0001040073111653328,0.00117013230919838,0.006475643254816532,0.007772335782647133,0.03057572990655899,0.0184016227722168,2,0.003893587505444884,-0.0005653760163113475,0.1307844072580338,0.9914029836654663,-0.002139471936970949,-0.007572343572974205,-0.9999690651893616,-6.1552734375,-38.32562637329102,-34.35147094726562,0,2
1562613733.722912,191,0,308997.159421625,0.2626007519930052,-0.001992671388430615,0.007519403248709699,0.0004040999338030815,0.003216246142983437,0.007260370533913374,0.00890705268830061,0.0318959467113018,0.0193026065826416,2,0.00385777186602354,-0.0004955209442414343,0.1309187263250351,0.9913855195045471,-0.001992613775655627,-0.007519332226365805,-0.9999697208404541,-5.420013427734375,-38.55061340332031,-34.9365234375,0,2
1562613733.754879,192,0,308997.194394625,0.2627906086373551,-0.001765829523063091,0.007487256702352009,0.0006432770751416683,0.006681839004158974,0.004333151504397392,0.007306676357984543,0.03108557127416134,0.01434415578842163,2,0.003827024949714541,-0.0003848181513603777,0.1310133039951324,0.9913731217384338,-0.001765779103152454,-0.007487186696380377,-0.9999704360961914,-5.282791137695312,-38.41471862792969,-35.36666870117188,0,2
1562613733.80168,193,0,308997.229337625,0.2628484317849593,-0.001502484373323492,0.007606854725262683,0.005861715879291296,0.00780993327498436,0.001420324319042265,0.009637040086090565,0.03067124076187611,0.01431316137313843,2,0.003869064152240753,-0.0002463348209857941,0.1310423910617828,0.9913691878318787,-0.001502440311014652,-0.007606781553477049,-0.9999699592590332,-4.887481689453125,-38.75504302978516,-35.6650390625,0,2
1562613733.820955,194,0,308997.264279625,0.2628654186526229,-0.001498862065211072,0.007741147674177457,0.004724862519651651,-0.00150129571557045,0.001420004293322563,0.01010643411427736,0.03007325530052185,0.01570069789886475,2,0.003935395739972591,-0.0002357064513489604,0.1310507357120514,0.9913678169250488,-0.001498816651292145,-0.007741070352494717,-0.9999688863754272,-4.620010375976562,-38.82997512817383,-35.79922485351562,0,2
1562613733.854659,195,0,308997.299222625,0.2628758104370984,-0.001446724099679912,0.007931657185101562,0.004650772549211979,0.0007642228156328201,0.0001600583782419562,0.007765419781208038,0.03047759458422661,0.01426494121551514,2,0.004026412963867188,-0.0001973578036995605,0.1310558766126633,0.9913667440414429,-0.001446678070351481,-0.007931574247777462,-0.9999675154685974,-4.154327392578125,-38.96603775024414,-36.38717651367188,0,2
1562613733.886764,196,0,308997.334195625,0.2628574758173635,-0.001373010319543065,0.007890779576581844,0.002509247045964003,0.0004840344190597534,-0.0006746879080310464,0.009537940844893456,0.0305129662156105,0.01885825395584106,2,0.004001318477094173,-0.0001635345979593694,0.1310469508171082,0.9913681149482727,-0.001372967148199677,-0.007890697568655014,-0.9999679327011108,-3.558456420898438,-38.98714065551758,-36.84881591796875,0,2
1562613733.920527,197,0,308997.369107625,0.2627932071611442,-0.00127603635326534,0.007908923372249745,0.003303029574453831,0.001062782481312752,-0.001823620405048132,0.008113347925245762,0.0302717313170433,0.01501303911209106,2,0.004003954585641623,-0.0001144058624049649,0.1310152858495712,0.9913722276687622,-0.001275996095500886,-0.007908840663731098,-0.9999679327011108,-3.3251953125,-38.96218490600586,-37.59820556640625,0,2
1562613733.955827,198,0,308997.404080625,0.2626724666795945,-0.001104693328621212,0.008003664879678886,0.004741107579320669,0.005496691912412643,-0.0038234933745116,0.007743455469608307,0.0300766583532095,0.01638579368591309,2,0.00403969082981348,-2.351088005525526e-05,0.1309557259082794,0.991379976272583,-0.001104657771065831,-0.008003579452633858,-0.9999673366546631,-2.949935913085938,-39.26137924194336,-37.89163208007812,0,2
1562613733.986351,199,0,308997.439023625,0.2625644101366865,-0.0009148328816227632,0.008104487022626125,0.007543142419308424,0.006085028871893883,-0.002551371231675148,0.008758833631873131,0.02904843911528587,0.01629358530044556,2,0.004077239893376827,7.698260014876723e-05,0.130902498960495,0.9913868308067322,-0.0009148027165792882,-0.008104397915303707,-0.9999667406082153,-2.476211547851562,-39.23133087158203,-38.19003295898438,0,2
1562613734.041265,200,0,308997.473966625,0.262491453381782,-0.000813645656294035,0.008206048652569103,0.003699928987771273,-0.0008386969566345215,-0.0009973996784538031,0.009222112596035004,0.028738122433424,0.01482802629470825,2,0.004120965488255024,0.0001336376735707745,0.1308664977550507,0.9913913607597351,-0.0008136181859299541,-0.008205956779420376,-0.999966025352478,-1.986526489257812,-39.29289245605469,-38.5159912109375,0,2
1562613734.052303,201,0,308997.508908625,0.2624618672712891,-0.0007326399219165501,0.008199317193761596,0.004002786707133055,0.00318446196615696,-0.0005779127241112292,0.01040749996900558,0.02894500829279423,0.0188259482383728,2,0.004112330731004477,0.0001732905366225168,0.130851998925209,0.9913933277130127,-0.0007326152408495545,-0.008199225179851055,-0.9999661445617676,-2.350540161132812,-39.28833389282227,-38.42251586914062,0,2
1562613734.084565,202,0,308997.543881625,0.2624930319973264,-0.0008229761248399749,0.008120747482090691,-0.0008623790927231312,-0.006162336096167564,-0.0003334208158776164,0.009124642238020897,0.03057533875107765,0.01702600717544556,2,0.004079292062669992,0.0001234340161317959,0.1308672875165939,0.9913915395736694,-0.0008229488739743829,-0.008120657876133919,-0.9999666810035706,-2.800186157226562,-39.23123168945312,-38.28659057617188,0,2
1562613734.124307,203,0,308997.578794625,0.2624821178542826,-0.0008334843299051385,0.008099926589663665,0.002235785592347383,-0.0004078187048435211,0.0003482396714389324,0.007960235700011253,0.02934905141592026,0.01540869474411011,2,0.004069659393280745,0.0001168404924101196,0.1308618634939194,0.9913923144340515,-0.0008334568701684475,-0.00809983815997839,-0.9999668598175049,-2.888885498046875,-39.10695648193359,-38.20693969726562,0,2
1562613734.150718,204,0,308997.613767625,0.2624255449897608,-0.0007949098418218243,0.007980857799174393,-0.0008295755833387375,-0.0001175124198198318,-0.002399554010480642,0.009447499178349972,0.02936718240380287,0.01823258399963379,2,0.004008117131888866,0.0001280573633266613,0.1308339536190033,0.9913962483406067,-0.000794884457718581,-0.007980773225426674,-0.9999678134918213,-3.205459594726562,-39.17527389526367,-38.2626953125,0,2
1562613734.201269,205,0,308997.648679625,0.2623324703346496,-0.00087167205120498,0.00796123224076615,0.001919783651828766,-0.00165284238755703,-0.004101954400539398,0.009768485091626644,0.03024780750274658,0.01539450883865356,2,0.004003414884209633,8.853642066242173e-05,0.1307876855134964,0.991402268409729,-0.0008716442971490324,-0.007961148396134377,-0.9999679327011108,-3.761505126953125,-39.0535774230957,-37.82403564453125,0,2
1562613734.216167,206,0,308997.683652625,0.2622251308739159,-0.0008290026757394592,0.00789424468292531,0.0009915893897414207,0.001197252422571182,-0.002050365321338177,0.008337220177054405,0.02859383448958397,0.01675313711166382,2,0.003967424388974905,0.0001050940554705448,0.1307345926761627,0.9914094209671021,-0.0008289767429232597,-0.007894163019955158,-0.9999684691429138,-4.225997924804688,-39.08616256713867,-37.26760864257812,0,2
1562613734.250232,207,0,308997.718595625,0.2622198081979699,-0.0008170209194719362,0.007861307563621965,-3.106053918600082e-05,-0.004053384996950626,0.001281839911825955,0.007959014736115932,0.02964423596858978,0.01855391263961792,2,0.003950314130634069,0.0001088698190869763,0.1307319849729538,0.9914098978042603,-0.0008169955690391362,-0.007861226797103882,-0.9999687671661377,-4.61798095703125,-38.89553070068359,-37.10501098632812,0,2
1562613734.282085,208,0,308997.718595625,0.2622198081979699,-0.0008170209194719362,0.007861307563621965,-3.106053918600082e-05,-0.004053384996950626,0.001281839911825955,0.007959014736115932,0.02964423596858978,0.01855391263961792,2,0.003950314130634069,0.0001088698190869763,0.1307319849729538,0.9914098978042603,-0.0008169955690391362,-0.007861226797103882,-0.9999687671661377,-4.61798095703125,-38.89553070068359,-37.10501098632812,0,2
1562613734.31599,209,0,308997.753568625,0.2622576107954645,-0.0007464305201527631,0.007842145095447379,0.002806882373988628,0.006178181618452072,-0.000181248877197504,0.007857831194996834,0.0297318659722805,0.01533454656600952,2,0.00393619854003191,0.000142683697049506,0.1307508796453476,0.9914073944091797,-0.0007464074878953397,-0.007842064835131168,-0.999968945980072,-5.118789672851562,-38.83093643188477,-36.16754150390625,0,2
1562613734.35552,210,0,308997.788480625,0.2621969883459133,-0.0005739686902019291,0.007858125255772598,0.003058121539652348,0.001963788643479347,-0.001391986152157187,0.009821414016187191,0.02971734665334225,0.01606696844100952,2,0.003932851832360029,0.0002290990960318595,0.1307211518287659,0.9914113879203796,-0.0005739509360864758,-0.007858044467866421,-0.999968945980072,-5.804244995117188,-38.99398422241211,-35.8193359375,0,2
1562613734.382443,211,0,308997.823453625,0.2620917833647466,-0.0006093134356105812,0.007783074267207341,-0.00218293140642345,-0.003696024417877197,-0.00228216452524066,0.009505844675004482,0.02852832525968552,0.015228271484375,2,0.003897969843819737,0.00020646805933211,0.130668967962265,0.9914183616638184,-0.0006092949188314378,-0.007782995700836182,-0.9999695420265198,-5.99774169921875,-38.87387084960938,-35.9949951171875,0,2
1562613734.414545,212,0,308997.858365625,0.2620882434692451,-0.0005876232964645697,0.007701109878362259,9.848922491073608e-05,0.0009509660303592682,0.0001901566283777356,0.0100792245939374,0.02861411869525909,0.01745671033859253,2,0.003855922492220998,0.0002118580014212057,0.1306672841310501,0.9914187788963318,-0.0005876058130525053,-0.007701033726334572,-0.9999701976776123,-6.507064819335938,-38.90690231323242,-35.75814819335938,0,2
1562613734.447936,213,0,308997.893338625,0.2621194189931628,-0.0005251553777933347,0.007519297296223329,-0.002614552853628993,-0.001407507807016373,-0.0004354340489953756,0.007605801336467266,0.03012583777308464,0.01671046018600464,2,0.003761711530387402,0.0002310039271833375,0.1306829303503036,0.9914170503616333,-0.0005251404945738614,-0.007519226521253586,-0.9999715685844421,-6.583786010742188,-38.75238037109375,-35.1885986328125,0,2
1562613734.47989,214,0,308997.928281625,0.2621325983955184,-0.0006624997761153018,0.007424790697549908,-0.0004807896912097931,-0.007823653519153595,0.001416115090250969,0.007316048722714186,0.0290241502225399,0.01640588045120239,2,0.00372383720241487,0.0001567704166518524,0.1306892484426498,0.991416335105896,-0.0006624814704991877,-0.007424722425639629,-0.9999722242355347,-7.299911499023438,-38.77007675170898,-34.19668579101562,0,2
1562613734.520189,215,0,308997.963254625,0.2620618713596722,-0.0006136960627545619,0.007436366860801688,0.005640141200274229,0.005086850374937057,-0.002868962939828634,0.009601786732673645,0.03143136948347092,0.01574969291687012,2,0.003726392984390259,0.0001815875002648681,0.1306542754173279,0.9914209246635437,-0.0006136790616437793,-0.007436298299580812,-0.9999721646308899,-7.793914794921875,-38.77839660644531,-33.7274169921875,0,2
1562613734.545669,216,0,308997.998166625,0.261995082464417,-0.0005886320845413889,0.007421325947024111,-0.0001217909157276154,-0.003373729065060616,0.0001004578080028296,0.01055325847119093,0.02996672876179218,0.01623815298080444,2,0.003717305837199092,0.0001929051504703239,0.1306212097406387,0.9914253950119019,-0.0005886158323846757,-0.00742125790566206,-0.9999722838401794,-8.2802734375,-38.70852661132812,-33.097900390625,0,2
1562613734.600818,217,0,308998.033139625,0.261981989003302,-0.0004594603180789118,0.007422860146383829,0.003213322255760431,0.004487378522753716,0.0002109293127432466,0.008989620953798294,0.0277862586081028,0.01771831512451172,2,0.003709631972014904,0.0002570132201071829,0.1306149661540985,0.9914261698722839,-0.0004594476486090571,-0.007422791793942451,-0.9999723434448242,-8.952911376953125,-38.54085922241211,-32.08126831054688,0,2
1562613734.611501,218,0,308998.068051625,0.2620258046462318,-0.0003730358146333315,0.007323194717110637,-0.002819416811689734,0.0005336515605449677,0.001935005886480212,0.008948879316449165,0.02802217938005924,0.01880240440368652,2,0.003654575673863292,0.0002934259828180075,0.1306368708610535,0.9914235472679138,-0.0003730258031282574,-0.0073231291025877,-0.9999731183052063,-9.156997680664062,-38.43464279174805,-31.95223999023438,0,2
1562613734.645965,219,0,308998.103025625,0.2620693251746041,-0.0003244573423494739,0.007194203953690765,-0.001458514947444201,0.0003517493605613708,0.001267991377972066,0.007572734262794256,0.02957151643931866,0.01427149772644043,2,0.003587453858926892,0.0003091594844590873,0.1306585818529129,0.9914208650588989,-0.0003244489489588886,-0.007194141857326031,-0.9999740719795227,-9.362258911132812,-38.65371322631836,-31.58688354492188,0,2
1562613734.680885,220,0,308998.137967875,0.2620393895390058,-0.0002241677260389571,0.007164063745744024,0.0003334521315991879,0.001409845426678658,-0.001566845225170255,0.006999313365668058,0.03021273203194141,0.01495844125747681,2,0.003565966617316008,0.0003568516985978931,0.1306439340114594,0.9914228320121765,-0.0002241619658889249,-0.007164002396166325,-0.9999743103981018,-9.441421508789062,-38.46630477905273,-31.54910278320312,0,2
1562613734.711381,221,0,308998.172910875,0.2619868302872267,-0.0001723876583301466,0.007087070702160603,0.0004350929521024227,-0.0001489110291004181,-0.00204114755615592,0.009770353324711323,0.02830460295081139,0.01703417301177979,2,0.003524427767843008,0.0003773976641241461,0.1306179910898209,0.991426408290863,-0.0001723833265714347,-0.007087011355906725,-0.9999748468399048,-10.0911865234375,-38.459228515625,-30.716552734375,0,2
1562613734.75104,222,0,308998.207852875,0.2619678646528705,-0.0001351330254740718,0.00715792457813607,0.002713908907026052,-0.003764716908335686,-2.123648300766945e-06,0.008588649332523346,0.0285433791577816,0.01649963855743408,2,0.003557121613994241,0.0004004589281976223,0.1306086331605911,0.9914275407791138,-0.0001351295650238171,-0.007157863583415747,-0.9999743700027466,-10.02348327636719,-38.4311408996582,-30.76962280273438,0,2
1562613734.777251,223,0,308998.242826875,0.2619608169763195,-0.0001093906418650242,0.007062736991388359,0.0008931350894272327,0.002877993509173393,-0.001612697960808873,0.009936169721186161,0.02757833898067474,0.01708012819290161,2,0.003508256049826741,0.0004069911956321448,0.1306052058935165,0.9914281964302063,-0.0001093879109248519,-0.007062678225338459,-0.9999750256538391,-10.2396240234375,-38.45366668701172,-30.5631103515625,0,2
1562613734.80939,224,0,308998.277738875,0.2619361246785971,-7.935568255457078e-05,0.00706510736690687,0.001979811117053032,-0.002876607701182365,0.0004494324093684554,0.0094788558781147,0.02761122956871986,0.02078801393508911,2,0.003507474903017282,0.0004219914262648672,0.13059301674366,0.9914298057556152,-7.935370376799256e-05,-0.007065048441290855,-0.9999750256538391,-10.02474975585938,-38.36283874511719,-30.75860595703125,0,2
1562613734.843195,225,0,308998.277738875,0.2619361246785971,-7.935568255457078e-05,0.00706510736690687,0.001979811117053032,-0.002876607701182365,0.0004494324093684554,0.0094788558781147,0.02761122956871986,0.02078801393508911,2,0.003507474903017282,0.0004219914262648672,0.13059301674366,0.9914298057556152,-7.935370376799256e-05,-0.007065048441290855,-0.9999750256538391,-10.02474975585938,-38.36283874511719,-30.75860595703125,0,2
1562613734.875306,226,0,308998.312711875,0.2619280586330831,-7.623143722209544e-05,0.007031344036606528,0.0009244778193533421,0.004031922668218613,0.001439440879039466,0.007003804668784142,0.02963736653327942,0.01373869180679321,2,0.003490535775199533,0.0004213215142954141,0.1305890381336212,0.9914303421974182,-7.622955308761448e-05,-0.007031286135315895,-0.9999752640724182,-10.451904296875,-38.24528503417969,-30.79461669921875,0,2
1562613734.917,227,0,308998.347623875,0.2619680890993117,-5.163809146890879e-05,0.00698585277354375,0.001288585364818573,0.0008430853486061096,0.002011250238865614,0.007177548483014107,0.02921035513281822,0.01695859432220459,2,0.003466370515525341,0.000430611806223169,0.130608931183815,0.9914278388023376,-5.163683090358973e-05,-0.006985796149820089,-0.9999756217002869,-10.36491394042969,-38.28076934814453,-30.75885009765625,0,2
1562613734.941491,228,0,308998.382596875,0.262015993253772,3.942787808894819e-05,0.006978481338239252,0.002616508398205042,0.001672683283686638,0.002723141573369503,0.005499469581991434,0.03114084340631962,0.01695865392684937,2,0.003456757869571447,0.0004753558314405382,0.1306328326463699,0.9914247393608093,3.942691910197027e-05,-0.006978424731642008,-0.9999756217002869,-10.43745422363281,-38.34947967529297,-30.60888671875,0,2
1562613734.976052,229,0,308998.417539875,0.2619831616444167,2.389237197330571e-05,0.006944676475115555,0.001711790449917316,-0.0001068785786628723,-0.001512546208687127,0.006857795640826225,0.02901654876768589,0.01485317945480347,2,0.003441022941842675,0.0004653902724385262,0.1306165456771851,0.9914268851280212,2.38917964452412e-05,-0.00694462051615119,-0.999975860118866,-9.9794921875,-38.30486679077148,-30.78005981445312,0,2
1562613735.006881,230,0,308998.452512875,0.2619151560580298,7.942265211330753e-05,0.006827701496087892,-0.0001888768747448921,0.002811135724186897,-0.001313660526648164,0.01029646769165993,0.02815176919102669,0.01886701583862305,2,0.003379426896572113,0.000485163094708696,0.1305829584598541,0.9914314746856689,7.942080264911056e-05,-0.006827648263424635,-0.9999766945838928,-9.72430419921875,-38.12024307250977,-31.38937377929688,0,2
1562613735.040836,231,0,308998.487424875,0.2618468092926289,0.000103989355190878,0.006844789012560463,0.001834625843912363,-0.002507956698536873,-0.0005829920992255211,0.01074489671736956,0.02697869017720222,0.0155709981918335,2,0.00338631053455174,0.0004983411636203527,0.1305491179227829,0.9914358854293823,0.0001039869166561402,-0.006844735704362392,-0.9999765753746033,-9.723312377929688,-38.24514007568359,-31.83920288085938,0,2
1562613735.072721,232,0,308998.522397875,0.2618880952656298,3.771103875638399e-05,0.006790834975143306,0.001569066662341356,-0.001777967438101768,0.0009348193416371942,0.009529508650302887,0.02718407660722733,0.01647168397903442,2,0.003363881027325988,0.0004620333202183247,0.1305694729089737,0.9914333820343018,3.771016781684011e-05,-0.006790782790631056,-0.9999769330024719,-9.734893798828125,-38.32291412353516,-31.58389282226562,0,2
1562613735.106714,233,0,308998.557309875,0.2619617202239916,0.0001326348656273532,0.006714264538563823,0.0002579232677817345,0.002773033455014229,0.002764318604022264,0.009190340526401997,0.02863330207765102,0.01700621843338013,2,0.003319708164781332,0.0005042119883000851,0.1306061446666718,0.9914286732673645,0.0001326318742940202,-0.006714214105159044,-0.9999774694442749,-9.838226318359375,-38.23395156860352,-31.48974609375,0,2
1562613735.143131,234,0,308998.592282875,0.2619706318075568,-1.076907892648827e-05,0.006407913370490769,-0.004775677341967821,-0.005069972947239876,0.0009193315636366606,0.007228188216686249,0.02939473278820515,0.01391071081161499,2,0.003177208360284567,0.0004131331224925816,0.130610391497612,0.9914286136627197,-1.076885746442713e-05,-0.006407869514077902,-0.9999794960021973,-9.597625732421875,-38.36330032348633,-31.84609985351562,0,2
1562613735.172724,235,0,308998.627225875,0.2619668957279614,-0.0001962124825331258,0.006333609781744292,0.002199623733758926,-0.004084635525941849,0.001421195338480175,0.006513565313071012,0.02779446914792061,0.01839727163314819,2,0.003152485936880112,0.0003163478395435959,0.1306082606315613,0.9914290308952332,-0.000196208551642485,-0.006333567667752504,-0.9999799132347107,-9.779571533203125,-38.34418869018555,-32.03860473632812,0,2
1562613735.204555,236,0,308998.662198875,0.261882401051527,-7.444343275645072e-05,0.006407045484004488,0.003968711942434311,0.003690216690301895,-0.003066176548600197,0.007337708491832018,0.02791376411914825,0.01616901159286499,2,0.003180953208357096,0.0003813718212768435,0.1305665522813797,0.9914343953132629,-7.444190123351291e-05,-0.00640700152143836,-0.9999794960021973,-9.787338256835938,-38.37913513183594,-32.38265991210938,0,2
1562613735.238987,237,0,308998.697110875,0.2618366880311113,-0.0001698275730175179,0.006331482165123064,-0.001501012593507767,-0.006072136573493481,-0.0009708190918900073,0.01011874340474606,0.02701414749026299,0.01659673452377319,2,0.003149729920551181,0.0003290833265054971,0.1305437684059143,0.9914374351501465,-0.0001698241685517132,-0.006331440061330795,-0.9999799132347107,-9.484832763671875,-38.42467498779297,-32.3284912109375,0,2
1562613735.270471,238,0,308998.732083875,0.2618614097616478,-2.39328629665326e-05,0.006278938849600472,0.0009570056572556496,0.005434878170490265,0.001643204130232334,0.01067459397017956,0.0271751694381237,0.01754313707351685,2,0.003114155260846019,0.0003980148758273572,0.1305562555789948,0.9914359450340271,-2.393239083176013e-05,-0.006278897635638714,-0.9999802708625793,-9.457763671875,-38.25248718261719,-32.363525390625,0,2
1562613735.304326,239,0,308998.766996875,0.2619481742982914,3.467618830301632e-06,0.006115400702307469,-0.003373006824404001,0.001487266272306442,0.002939153462648392,0.009044990874826908,0.0281863808631897,0.01643025875091553,2,0.003031280590221286,0.0004010538978036493,0.1305993497371674,0.9914304614067078,3.467554051894695e-06,-0.006115362513810396,-0.9999812841415405,-9.266998291015625,-38.27136611938477,-32.89724731445312,0,2
1562613735.336307,240,0,308998.801969875,0.2620340593242234,0.000158469838539185,0.00605248159993011,0.0007189246825873852,0.004003854468464851,0.003335051238536835,0.00612797774374485,0.0293898731470108,0.01733088493347168,2,0.002989948494359851,0.0004739105934277177,0.1306421607732773,0.9914249777793884,0.0001584669371368363,-0.006052444688975811,-0.9999816417694092,-9.0799560546875,-38.23759460449219,-33.14276123046875,0,2
1562613735.370169,241,0,308998.836911875,0.2620900416762817,0.000324339082816119,0.006024216134506806,1.881178468465805e-05,0.002089669927954674,-0.0002306986134499311,0.006145032122731209,0.02898010611534119,0.01559150218963623,2,0.002965086605399847,0.0005543706938624382,0.1306701600551605,0.9914213418960571,0.0003243332030251622,-0.006024179514497519,-0.9999818205833435,-8.945236206054688,-38.5833854675293,-33.2392578125,0,2
1562613735.402306,242,0,308998.836911875,0.2620900416762817,0.000324339082816119,0.006024216134506806,1.881178468465805e-05,0.002089669927954674,-0.0002306986134499311,0.006145032122731209,0.02898010611534119,0.01559150218963623,2,0.002965086605399847,0.0005543706938624382,0.1306701600551605,0.9914213418960571,0.0003243332030251622,-0.006024179514497519,-0.9999818205833435,-8.945236206054688,-38.5833854675293,-33.2392578125,0,2
1562613735.436252,243,0,308998.871854875,0.2620787878009858,0.0004034325089911931,0.00588896242200259,-0.0001571020111441612,0.002525366842746735,0.0001982825342565775,0.007408625446259975,0.02773081138730049,0.01632469892501831,2,0.002892875811085105,0.0005847252323292196,0.1306647211313248,0.991422176361084,0.0004034255107399076,-0.005888928193598986,-0.9999825954437256,-8.99737548828125,-38.69698715209961,-32.93441772460938,0,2
1562613735.468089,244,0,308998.906797875,0.262068516749277,0.0005697285111316194,0.005833635733809874,-0.0003972742706537247,0.005635656416416168,-5.050742765888572e-05,0.008493367582559586,0.02830103226006031,0.01646226644515991,2,0.002854588441550732,0.000663530663587153,0.1306598633527756,0.9914229512214661,0.0005697187734767795,-0.005833602510392666,-0.9999828338623047,-8.693359375,-38.53788375854492,-33.47149658203125,0,2
1562613735.502159,245,0,308998.941770875,0.2621391997121441,0.0006311109546804713,0.005717254527316994,-0.001402351539582014,0.002487532794475555,0.001758844126015902,0.009713656269013882,0.02725373953580856,0.01753103733062744,2,0.002792862709611654,0.0006864543538540602,0.1306950002908707,0.9914184212684631,0.0006311006145551801,-0.005717223510146141,-0.9999834299087524,-8.739532470703125,-38.56907653808594,-33.49850463867188,0,2
1562613735.533942,246,0,308998.976682875,0.2621988718236966,0.0006383064463024035,0.005609329673044741,-0.004637475591152906,0.000879799947142601,0.0002339142374694347,0.009904816746711731,0.02633697725832462,0.0168297290802002,2,0.002738872775807977,0.0006830504280515015,0.1307245939970016,0.9914146661758423,0.0006382963620126247,-0.005609300453215837,-0.999984085559845,-8.6119384765625,-38.47623825073242,-33.30380249023438,0,2
1562613735.567948,247,0,308999.011655875,0.2623083695799369,0.0006016199961951402,0.005332736949389811,-0.006767531856894493,-0.002218812704086304,0.00240476755425334,0.009407484903931618,0.02500722371041775,0.01728904247283936,2,0.002604126231744885,0.0006469287909567356,0.1307788342237473,0.9914078712463379,0.0006016113911755383,-0.00533271161839366,-0.9999855756759644,-9.122543334960938,-38.51956176757812,-32.8951416015625,0,2
1562613735.599933,248,0,308999.046567875,0.2624510202708351,0.0005534129292419546,0.005111861841865288,-0.00558288162574172,-0.002953825518488884,0.00386124849319458,0.008540216833353043,0.02747165039181709,0.01585590839385986,2,0.002497746143490076,0.0006087676738388836,0.1308494806289673,0.9913989305496216,0.0005534056690521538,-0.00511183962225914,-0.9999867677688599,-8.85540771484375,-38.54733276367188,-33.19796752929688,0,2
1562613735.633833,249,0,308999.081540875,0.2626234538320626,0.0005043283854323824,0.004918266357269589,-0.001721709500998259,-0.001705065369606018,0.005521675106137991,0.006819335743784904,0.02837647497653961,0.01719969511032104,2,0.002404943108558655,0.0005719781038351357,0.1309349089860916,0.9913878440856934,0.0005043222918175161,-0.004918246529996395,-0.999987781047821,-8.921859741210938,-38.50517654418945,-33.04638671875,0,2
1562613735.665804,250,0,308999.116483875,0.2627845736554964,0.000527481815906594,0.004794273364460448,-0.002161112613976002,0.0008270591497421265,0.003703643102198839,0.0076964246109128,0.02842019312083721,0.0166357159614563,2,0.002341918414458632,0.0005755263846367598,0.131014809012413,0.9913774132728577,0.0005274757277220488,-0.004794254899024963,-0.9999883770942688,-9.184600830078125,-38.49009704589844,-32.90093994140625,0,2
1562613735.702055,251,0,308999.1514656667,0.2628913521117177,0.0005673501429546482,0.004641349731544356,-0.001806062646210194,-0.002415886148810387,0.00445060757920146,0.009548602625727654,0.02751941978931427,0.01747560501098633,2,0.002263472881168127,0.0005853919428773224,0.1310677826404572,0.9913706183433533,0.0005673440173268318,-0.004641333129256964,-0.9999890923500061,-9.188552856445312,-38.51296997070312,-32.55618286132812,0,2
1562613735.731747,252,0,308999.1863776667,0.2629850671341534,0.0005562695573511262,0.004505262085518235,-0.0006074244156479836,0.002267030999064445,0.004252520855516195,0.008277956396341324,0.02648291178047657,0.01808661222457886,2,0.002196715446189046,0.0005710840341635048,0.1311142146587372,0.9913647174835205,0.0005562638980336487,-0.004505246877670288,-0.9999896883964539,-9.152297973632812,-38.31567764282227,-32.62118530273438,0,2
1562613735.765652,253,0,308999.2213506667,0.2631469501310385,0.0005560565363210206,0.004393648786430858,-0.005341138690710068,-0.003961285576224327,0.006389789748936892,0.01026181224733591,0.02727144211530685,0.01733940839767456,2,0.002141359029337764,0.0005638347938656807,0.1311944574117661,0.99135422706604,0.00055605114903301,-0.004393634852021933,-0.9999901652336121,-8.968719482421875,-38.41465759277344,-32.31402587890625,0,2
1562613735.797623,254,0,308999.2562626667,0.2633447625892437,0.0006236607497392565,0.004255263613445672,-0.001550013665109873,0.004205746576189995,0.004055282101035118,0.009538005106151104,0.02730075083673,0.01860648393630981,2,0.002068271860480309,0.0005884716520085931,0.1312925815582275,0.9913413524627686,0.0006236550398170948,-0.004255250561982393,-0.9999907612800598,-8.924667358398438,-38.63529968261719,-32.69293212890625,0,2
1562613735.831572,255,0,308999.2912356667,0.2634308289470702,0.000769488217737046,0.004201638091931257,-0.0004207370802760124,-0.0004637744277715683,0.001282563549466431,0.008812183514237404,0.02558385767042637,0.01715701818466187,2,0.002032089978456497,0.000657321244943887,0.1313353925943375,0.9913356900215149,0.0007694813539274037,-0.004201625939458609,-0.9999908804893494,-8.7901611328125,-38.46043395996094,-33.178466796875,0,2
1562613735.867501,256,0,308999.3261786667,0.2635551357797997,0.0006112990142221982,0.004137252847245137,-0.0003807893954217434,-0.005375709384679794,0.004086872097104788,0.009153652004897594,0.02562621235847473,0.01705056428909302,2,0.002010528463870287,0.0005748089170083404,0.1313968449831009,0.9913276433944702,0.0006112937699072063,-0.004137240815907717,-0.999991238117218,-8.829483032226562,-38.64323806762695,-33.28643798828125,0,2
1562613735.897492,257,0,308999.3611516667,0.2637598260092448,0.0006396782865580083,0.004158078504842558,0.004646992310881615,0.001477403566241264,0.006442171521484852,0.007675657048821449,0.02724923193454742,0.01630276441574097,2,0.002018925966694951,0.0005904502468183637,0.131498321890831,0.9913142323493958,0.0006396727403625846,-0.004158066585659981,-0.9999911785125732,-8.564300537109375,-38.62202835083008,-33.08499145507812,0,2
1562613735.929598,258,0,308999.3960636667,0.2639893527849946,0.0006417223286274804,0.004111048533512134,-0.0009006117470562458,0.000438230112195015,0.006445741280913353,0.008772242814302444,0.02672912925481796,0.01750844717025757,2,0.001995413564145565,0.0005886004073545337,0.1316121071577072,0.991299033164978,0.0006417168769985437,-0.004111037123948336,-0.9999913573265076,-8.869400024414062,-38.71743392944336,-32.98019409179688,0,2
1562613735.963319,259,0,308999.4310366667,0.2641639762620315,0.0006074545841879148,0.004008894504209509,-0.001872032880783081,-0.004308575764298439,0.005888446699827909,0.00918801873922348,0.02864102274179459,0.0165475606918335,2,0.001946986652910709,0.0005650633247569203,0.1316986232995987,0.9912876486778259,0.00060744967777282,-0.004008883610367775,-0.999991774559021,-8.724945068359375,-38.84325790405273,-33.03390502929688,0,2
1562613735.99546,260,0,308999.4310366667,0.2641639762620315,0.0006074545841879148,0.004008894504209509,-0.001872032880783081,-0.004308575764298439,0.005888446699827909,0.00918801873922348,0.02864102274179459,0.0165475606918335,2,0.001946986652910709,0.0005650633247569203,0.1316986232995987,0.9912876486778259,0.00060744967777282,-0.004008883610367775,-0.999991774559021,-8.724945068359375,-38.84325790405273,-33.03390502929688,0,2
1562613736.029391,261,0,308999.4659496667,0.2641929876249511,0.0006507843587479251,0.004036557834205294,0.002860836684703827,0.003792481496930122,0.0003367161843925714,0.007466174196451902,0.0300725232809782,0.01909565925598145,2,0.001957835862413049,0.0005883893463760614,0.1317130327224731,0.9912858009338379,0.0006507789948955178,-0.004036546684801579,-0.9999916553497314,-9.031661987304688,-38.65400314331055,-32.69833374023438,0,2
1562613736.061406,262,0,308999.5009226667,0.2640818134856904,0.0007574143631242181,0.004083047073868358,0.002824718132615089,-0.0005631055682897568,-0.003913850523531437,0.006916922051459551,0.02679264545440674,0.01601308584213257,2,0.001973891397938132,0.0006441915757022798,0.1316580325365067,0.9912930727005005,0.0007574079791083932,-0.004083035513758659,-0.9999913573265076,-8.8046875,-38.75041580200195,-32.51104736328125,0,2
1562613736.095949,263,0,308999.5358646667,0.2638995214855913,0.0006884107799967543,0.004042587639532848,0.0006894045509397984,-0.003332315012812614,-0.006178817246109247,0.008069375529885292,0.02649274282157421,0.01749342679977417,2,0.001958435634151101,0.000607148336712271,0.1315676122903824,0.9913051128387451,0.0006884051254019141,-0.004042576532810926,-0.9999915957450867,-8.911727905273438,-38.70817565917969,-32.565673828125,0,2
1562613736.127643,264,0,308999.5708386667,0.2637992441258583,0.0007081839697350626,0.004054378975279724,0.002148170955479145,-0.0001285411417484283,-0.000716355862095952,0.009560201317071915,0.02618411183357239,0.01726448535919189,2,0.001963010290637612,0.0006176262395456433,0.1315179318189621,0.9913116693496704,0.0007081780931912363,-0.004054368007928133,-0.9999915361404419,-8.934097290039062,-38.60847091674805,-32.71099853515625,0,2
1562613736.161303,265,0,308999.6057506667,0.2637757550780718,0.0006518623055547909,0.004064979720413673,-0.001155600417405367,-0.003920303657650948,0.0002182589378207922,0.00963184330612421,0.02636257000267506,0.01616585254669189,2,0.001971975201740861,0.0005903840065002441,0.1315062344074249,0.9913132190704346,0.0006518568843603134,-0.004064968321472406,-0.9999915361404419,-8.740524291992188,-38.63905715942383,-33.265869140625,0,2
1562613736.193187,266,0,308999.6407236667,0.2637703285692514,0.0005482649143340257,0.003988513402383324,-0.00332130491733551,-0.002878464758396149,-0.0005728068645112216,0.00953719113022089,0.02718628756701946,0.01680707931518555,2,0.001940887537784874,0.0005340022034943104,0.1315034478902817,0.991313636302948,0.0005482605192810297,-0.003988503012806177,-0.9999918937683105,-8.609146118164062,-38.7379150390625,-33.75537109375,0,2
1562613736.226803,267,0,308999.6756356667,0.2637236980859556,0.0004788170911913829,0.003908597099350665,-0.001690275967121124,-0.003207139670848846,-0.001238705939613283,0.00776040181517601,0.02764033898711205,0.0174788236618042,2,0.001905854209326208,0.0004942808300256729,0.1314802616834641,0.9913168549537659,0.000478813424706459,-0.003908587154000998,-0.9999922513961792,-8.536026000976562,-38.47281646728516,-33.80416870117188,0,2
1562613736.261692,268,0,308999.7106086667,0.2636850748341793,0.0005340830592106948,0.003842414879490778,0.001237760297954082,0.003328299149870872,-0.00159359653480351,0.007659298367798328,0.02772667072713375,0.0169144868850708,2,0.001869427273049951,0.0005172870005480945,0.1314611732959747,0.9913194179534912,0.0005340790958143771,-0.003842405509203672,-0.9999924898147583,-8.61248779296875,-38.63956832885742,-33.19503784179688,0,2
1562613736.292825,269,0,308999.7455516667,0.2635962411530529,0.0005564253132277806,0.003900354078285696,0.002465251833200455,-0.00115085206925869,-0.001656628795899451,0.005973723717033863,0.0263198297470808,0.0165480375289917,2,0.001896700356155634,0.0005320851923897862,0.1314171552658081,0.9913252592086792,0.0005564210587181151,-0.00390034425072372,-0.9999922513961792,-8.808609008789062,-38.49553298950195,-33.154296875,0,2
1562613736.324823,270,0,308999.7804936667,0.2635332009231882,0.0006374488719985333,0.003941869922793782,0.003559700213372707,0.0006592534482479095,-8.118740515783429e-05,0.007830477319657803,0.02654449641704559,0.0171581506729126,2,0.001911972532980144,0.0005749132833443582,0.1313859969377518,0.9913292527198792,0.0006374438526108861,-0.00394185958430171,-0.9999920129776001,-8.779083251953125,-38.44817352294922,-33.00289916992188,0,2
1562613736.358768,271,0,308999.8154366667,0.2634885531576954,0.000728460813904854,0.003955668870069226,0.002559100277721882,0.002123478800058365,-0.001133348792791367,0.008670151233673096,0.02475777268409729,0.01674604415893555,2,0.001912847044877708,0.0006208883714862168,0.1313639432191849,0.9913322329521179,0.0007284550229087472,-0.0039556585252285,-0.9999918937683105,-8.70562744140625,-38.46688842773438,-32.91192626953125,0,2
1562613736.390875,272,0,308999.8504096667,0.2634362850270514,0.0007870316079458997,0.004017648230057792,0.002750763669610023,-0.001193992793560028,-0.001132029574364424,0.00929816160351038,0.02402636408805847,0.01764601469039917,2,0.001939738285727799,0.0006539401947520673,0.1313381046056747,0.9913355112075806,0.0007870252011343837,-0.004017637576907873,-0.9999915957450867,-8.733535766601562,-38.64385986328125,-33.04415893554688,0,2
1562613736.424976,273,0,308999.8853216667,0.2633959888267077,0.0008366731181570368,0.003985999511834907,-0.001736905891448259,-0.0008089076727628708,-0.0001363196060992777,0.008821220137178898,0.0249712411314249,0.01604396104812622,2,0.001920804614201188,0.0006764287827536464,0.1313181668519974,0.9913382530212402,0.0008366663823835552,-0.003985988907516003,-0.9999917149543762,-8.405502319335938,-38.72838592529297,-33.11776733398438,0,2
1562613736.456626,274,0,308999.9202946667,0.2634276833526382,0.0008376326612157825,0.003946578714886019,0.003012858331203461,0.0004704706370830536,0.001171401469036937,0.007736884988844395,0.02879225090146065,0.01761573553085327,2,0.001901191426441073,0.0006743463454768062,0.1313338875770569,0.9913361072540283,0.0008376260520890355,-0.003946568351238966,-0.9999918341636658,-8.962982177734375,-38.62244033813477,-32.89495849609375,0,2
1562613736.490746,275,0,308999.9552066667,0.2634507354453328,0.0009852016214953806,0.004007453373401575,0.001296372152864933,0.001616941764950752,-0.0005362145602703094,0.006276898086071014,0.02792240679264069,0.01526552438735962,2,0.001921665854752064,0.0007515110191889107,0.1313454508781433,0.9913345575332642,0.0009851935319602489,-0.004007442854344845,-0.9999914765357971,-8.837432861328125,-38.75737380981445,-32.63055419921875,0,2
1562613736.522582,276,0,308999.9901806667,0.26340932540533,0.0009619756487019465,0.003954335440192787,-0.001177531201392412,-0.003565851598978043,-0.002259653061628342,0.005201516672968864,0.02634335123002529,0.01779872179031372,2,0.001896877656690776,0.0007364710909314454,0.131324902176857,0.9913372993469238,0.0009619679767638445,-0.003954325336962938,-0.9999917149543762,-8.814926147460938,-38.6899299621582,-32.4061279296875,0,2
1562613736.556464,277,0,309000.0251226667,0.2633599492910014,0.0008838336316543432,0.003957111402848253,0.00468213576823473,0.001033145934343338,-0.00194923731032759,0.008377279154956341,0.02700225636363029,0.0160897970199585,2,0.001903401920571923,0.0006978738820180297,0.1313003599643707,0.9913405179977417,0.0008838265785016119,-0.00395710114389658,-0.999991774559021,-8.738983154296875,-38.74434661865234,-32.35858154296875,0,2
1562613736.590399,278,0,309000.0251226667,0.2633599492910014,0.0008838336316543432,0.003957111402848253,0.00468213576823473,0.001033145934343338,-0.00194923731032759,0.008377279154956341,0.02700225636363029,0.0160897970199585,2,0.001903401920571923,0.0006978738820180297,0.1313003599643707,0.9913405179977417,0.0008838265785016119,-0.00395710114389658,-0.999991774559021,-8.738983154296875,-38.74434661865234,-32.35858154296875,0,2
1562613736.622537,279,0,309000.0600956667,0.2633140747850999,0.0008646233992454699,0.004000211051770126,-0.0003503025509417057,-0.006263867951929569,-0.0007494823657907546,0.00900686252862215,0.02561107836663723,0.01782912015914917,2,0.001926042139530182,0.0006911372183822095,0.1312776058912277,0.9913434982299805,0.0008646163623780012,-0.004000200424343348,-0.9999915957450867,-8.618606567382812,-38.63962173461914,-32.39141845703125,0,2
